"success","timeout","failed_images","failed_audio","failed_video","trial_type","trial_index","time_elapsed","internal_node_id","rt","stimulus","response","view_history","record_id","session","project","state_1_ids","state_1_key","state_1_choice","state_1_rt","transition","state","state_2_ids","state_2_key","state_2_choice","state_2_rt","outcome","rocket_colors","planet_colors","screen_resolution","minimum_resolution","trial","drifts","drift_ix","browser_interactions","missing"
"true","false","[]","[]","[]","preload","0","268","0.0-0.0","","","","","","","","","","","","","","","","","","","","","","","","","","",""
"true","","","","","fullscreen","1","2459","0.0-1.0","","","","","","","","","","","","","","","","","","","","","","","","","","",""
"","","","","","image-button-response","2","3544","0.0-2.0","1081","","1","","","","","","","","","","","","","","","","","","","","","","","",""
"","","","","","two-step-instructions","3","6320","0.0-4.0","2773","","","[{""page_index"":0,""viewing_time"":1186},{""page_index"":1,""viewing_time"":811},{""page_index"":2,""viewing_time"":775}]","","","","","","","","","","","","","","","","","","","","","","",""
"","","","","","two-step-trial","4","23207","0.0-5.0-0.0","","","","","test3","undefinedundefined","undefined","[0,1]","1","1","1063","1","1","[2,3]","null","null","null","null","[""#955db9"",""#48a782""]","[""#7f5d5d"",""#5f6f81""]","[980,1644]","1","1","[0.44,0.385,0.62,0.421]","1","0","true"
"","","","","","two-step-trial","5","38535","0.0-5.1-0.1","","","","","test3","undefinedundefined","undefined","[0,1]","1","1","6010","1","1","[2,3]","1","3","7307","1","[""#955db9"",""#48a782""]","[""#7f5d5d"",""#5f6f81""]","[980,1644]","1","1","[0.44,0.385,0.62,0.421]","1","0","false"
"","","","","","two-step-trial","6","45192","0.0-6.0-0.0","","","","","test3","undefinedundefined","undefined","[0,1]","1","1","3537","1","1","[2,3]","1","3","1110","1","[""#955db9"",""#48a782""]","[""#7f5d5d"",""#5f6f81""]","[980,1644]","1","2","[0.427,0.383,0.623,0.388]","1","0","false"
"","","","","","two-step-trial","7","50106","0.0-7.0-0.0","","","","","test3","undefinedundefined","undefined","[0,1]","1","1","1345","1","1","[2,3]","1","3","1560","0","[""#955db9"",""#48a782""]","[""#7f5d5d"",""#5f6f81""]","[980,1644]","1","3","[0.366,0.399,0.638,0.394]","1","0","false"
"","","","","","two-step-trial","8","108456","0.0-8.0-0.0","","","","","test3","undefinedundefined","undefined","[0,1]","1","1","1242","1","1","[2,3]","null","null","null","null","[""#955db9"",""#48a782""]","[""#7f5d5d"",""#5f6f81""]","[980,1644]","1","4","[0.352,0.371,0.644,0.424]","1","4","true"
"","","","","","two-step-trial","9","120260","0.0-8.1-0.1","","","","","test3","undefinedundefined","undefined","[0,1]","1","1","7951","1","1","[2,3]","1","3","1835","0","[""#955db9"",""#48a782""]","[""#7f5d5d"",""#5f6f81""]","[980,1644]","1","4","[0.352,0.371,0.644,0.424]","1","2","false"
"","","","","","two-step-trial","10","140395","0.0-9.0-0.0","","","","","test3","undefinedundefined","undefined","[0,1]","null","null","null","1","null","[0,1]","null","null","null","null","[""#955db9"",""#48a782""]","[""#7f5d5d"",""#5f6f81""]","[980,1644]","1","5","[0.387,0.418,0.671,0.445]","1","3","true"
"","","","","","two-step-trial","11","144620","0.0-9.1-0.1","","","","","test3","undefinedundefined","undefined","[0,1]","1","1","1136","1","1","[2,3]","1","3","1074","1","[""#955db9"",""#48a782""]","[""#7f5d5d"",""#5f6f81""]","[980,1644]","1","5","[0.387,0.418,0.671,0.445]","1","0","false"
"","","","","","two-step-trial","12","149090","0.0-10.0-0.0","","","","","test3","undefinedundefined","undefined","[0,1]","1","1","984","1","1","[2,3]","1","3","1474","1","[""#955db9"",""#48a782""]","[""#7f5d5d"",""#5f6f81""]","[980,1644]","1","6","[0.376,0.44,0.655,0.477]","1","0","false"
"","","","","","two-step-trial","13","152984","0.0-11.0-0.0","","","","","test3","undefinedundefined","undefined","[0,1]","1","1","944","1","1","[2,3]","1","3","939","1","[""#955db9"",""#48a782""]","[""#7f5d5d"",""#5f6f81""]","[980,1644]","1","7","[0.376,0.46,0.674,0.453]","1","0","false"
"","","","","","two-step-trial","14","157000","0.0-12.0-0.0","","","","","test3","undefinedundefined","undefined","[0,1]","1","1","997","0","0","[0,1]","1","1","1006","1","[""#955db9"",""#48a782""]","[""#7f5d5d"",""#5f6f81""]","[980,1644]","1","8","[0.37,0.476,0.645,0.47]","1","0","false"
"","","","","","two-step-trial","15","161088","0.0-13.0-0.0","","","","","test3","undefinedundefined","undefined","[0,1]","1","1","912","1","1","[2,3]","1","3","1164","0","[""#955db9"",""#48a782""]","[""#7f5d5d"",""#5f6f81""]","[980,1644]","1","9","[0.349,0.439,0.653,0.482]","1","0","false"
"","","","","","two-step-trial","16","165674","0.0-14.0-0.0","","","","","test3","undefinedundefined","undefined","[0,1]","1","1","1634","1","1","[2,3]","1","3","939","0","[""#955db9"",""#48a782""]","[""#7f5d5d"",""#5f6f81""]","[980,1644]","1","10","[0.347,0.471,0.629,0.478]","1","0","false"
"","","","","","two-step-trial","17","170898","0.0-15.0-0.0","","","","","test3","undefinedundefined","undefined","[0,1]","1","1","927","0","0","[0,1]","1","1","2284","0","[""#955db9"",""#48a782""]","[""#7f5d5d"",""#5f6f81""]","[980,1644]","1","11","[0.346,0.411,0.666,0.456]","1","0","false"
"","","","","","two-step-trial","18","181856","0.0-16.0-0.0","","","","","test3","undefinedundefined","undefined","[0,1]","1","1","1910","0","0","[0,1]","1","1","7034","1","[""#955db9"",""#48a782""]","[""#7f5d5d"",""#5f6f81""]","[980,1644]","1","12","[0.371,0.413,0.638,0.405]","1","0","false"
"","","","","","two-step-trial","19","190139","0.0-17.0-0.0","","","","","test3","undefinedundefined","undefined","[0,1]","1","1","4469","0","0","[0,1]","1","1","1800","0","[""#955db9"",""#48a782""]","[""#7f5d5d"",""#5f6f81""]","[980,1644]","1","13","[0.354,0.425,0.641,0.388]","1","0","false"
"","","","","","two-step-trial","20","198083","0.0-18.0-0.0","","","","","test3","undefinedundefined","undefined","[0,1]","1","1","1031","1","1","[2,3]","1","3","4902","0","[""#955db9"",""#48a782""]","[""#7f5d5d"",""#5f6f81""]","[980,1644]","1","14","[0.315,0.45,0.635,0.335]","1","0","false"
"","","","","","two-step-trial","21","202482","0.0-19.0-0.0","","","","","test3","undefinedundefined","undefined","[0,1]","1","1","1070","1","1","[2,3]","1","3","1316","0","[""#955db9"",""#48a782""]","[""#7f5d5d"",""#5f6f81""]","[980,1644]","1","15","[0.291,0.41,0.635,0.339]","1","0","false"
"","","","","","two-step-trial","22","206723","0.0-20.0-0.0","","","","","test3","undefinedundefined","undefined","[0,1]","1","1","1049","1","1","[2,3]","1","3","1180","1","[""#955db9"",""#48a782""]","[""#7f5d5d"",""#5f6f81""]","[980,1644]","1","16","[0.3,0.409,0.61,0.364]","1","0","false"
"","","","","","two-step-trial","23","210913","0.0-21.0-0.0","","","","","test3","undefinedundefined","undefined","[0,1]","1","1","1120","1","1","[2,3]","1","3","1058","0","[""#955db9"",""#48a782""]","[""#7f5d5d"",""#5f6f81""]","[980,1644]","1","17","[0.3,0.418,0.639,0.392]","1","0","false"
"","","","","","two-step-trial","24","215120","0.0-22.0-0.0","","","","","test3","undefinedundefined","undefined","[0,1]","1","1","1067","1","1","[2,3]","1","3","1127","1","[""#955db9"",""#48a782""]","[""#7f5d5d"",""#5f6f81""]","[980,1644]","1","18","[0.308,0.463,0.63,0.375]","1","0","false"
"","","","","","two-step-trial","25","219586","0.0-23.0-0.0","","","","","test3","undefinedundefined","undefined","[0,1]","1","1","1066","1","1","[2,3]","1","3","1385","1","[""#955db9"",""#48a782""]","[""#7f5d5d"",""#5f6f81""]","[980,1644]","1","19","[0.345,0.475,0.617,0.402]","1","0","false"
"","","","","","two-step-trial","26","223568","0.0-24.0-0.0","","","","","test3","undefinedundefined","undefined","[0,1]","1","1","980","0","0","[0,1]","1","1","991","0","[""#955db9"",""#48a782""]","[""#7f5d5d"",""#5f6f81""]","[980,1644]","1","20","[0.39,0.463,0.595,0.433]","1","0","false"
"","","","","","two-step-trial","27","228392","0.0-25.0-0.0","","","","","test3","undefinedundefined","undefined","[0,1]","1","1","979","0","0","[0,1]","1","1","1833","0","[""#955db9"",""#48a782""]","[""#7f5d5d"",""#5f6f81""]","[980,1644]","1","21","[0.413,0.433,0.607,0.447]","1","0","false"
"","","","","","two-step-trial","28","234480","0.0-26.0-0.0","","","","","test3","undefinedundefined","undefined","[0,1]","1","1","2621","1","1","[2,3]","1","3","1454","0","[""#955db9"",""#48a782""]","[""#7f5d5d"",""#5f6f81""]","[980,1644]","1","22","[0.397,0.431,0.605,0.426]","1","0","false"
"","","","","","two-step-trial","29","241789","0.0-27.0-0.0","","","","","test3","undefinedundefined","undefined","[0,1]","1","1","3498","1","1","[2,3]","1","3","1799","0","[""#955db9"",""#48a782""]","[""#7f5d5d"",""#5f6f81""]","[980,1644]","1","23","[0.375,0.426,0.617,0.383]","1","0","false"
"","","","","","two-step-trial","30","246170","0.0-28.0-0.0","","","","","test3","undefinedundefined","undefined","[0,1]","1","1","1052","1","1","[2,3]","1","3","1317","0","[""#955db9"",""#48a782""]","[""#7f5d5d"",""#5f6f81""]","[980,1644]","1","24","[0.396,0.432,0.631,0.356]","1","0","false"
"","","","","","two-step-trial","31","250616","0.0-29.0-0.0","","","","","test3","undefinedundefined","undefined","[0,1]","1","1","1085","1","1","[2,3]","1","3","1351","1","[""#955db9"",""#48a782""]","[""#7f5d5d"",""#5f6f81""]","[980,1644]","1","25","[0.352,0.393,0.634,0.357]","1","0","false"
"","","","","","two-step-trial","32","254683","0.0-30.0-0.0","","","","","test3","undefinedundefined","undefined","[0,1]","1","1","1035","1","1","[2,3]","1","3","1022","1","[""#955db9"",""#48a782""]","[""#7f5d5d"",""#5f6f81""]","[980,1644]","1","26","[0.379,0.371,0.632,0.315]","1","0","false"
"","","","","","two-step-trial","33","259032","0.0-31.0-0.0","","","","","test3","undefinedundefined","undefined","[0,1]","1","1","1278","0","0","[0,1]","1","1","1058","0","[""#955db9"",""#48a782""]","[""#7f5d5d"",""#5f6f81""]","[980,1644]","1","27","[0.44,0.355,0.639,0.305]","1","0","false"
"","","","","","two-step-trial","34","263999","0.0-32.0-0.0","","","","","test3","undefinedundefined","undefined","[0,1]","1","1","1168","1","1","[2,3]","1","3","1784","0","[""#955db9"",""#48a782""]","[""#7f5d5d"",""#5f6f81""]","[980,1644]","1","28","[0.473,0.399,0.627,0.311]","1","0","false"
"","","","","","two-step-trial","35","273566","0.0-33.0-0.0","","","","","test3","undefinedundefined","undefined","[0,1]","1","1","1411","0","0","[0,1]","1","1","6144","0","[""#955db9"",""#48a782""]","[""#7f5d5d"",""#5f6f81""]","[980,1644]","1","29","[0.47,0.426,0.594,0.318]","1","0","false"
"","","","","","two-step-trial","36","288579","0.0-34.0-0.0","","","","","test3","undefinedundefined","undefined","[0,1]","null","null","null","0","null","[0,1]","null","null","null","null","[""#955db9"",""#48a782""]","[""#7f5d5d"",""#5f6f81""]","[980,1644]","1","30","[0.455,0.475,0.559,0.323]","1","0","true"
"","","","","","two-step-trial","37","296048","0.0-34.1-0.1","","","","","test3","undefinedundefined","undefined","[0,1]","1","1","1397","0","0","[0,1]","1","1","4058","1","[""#955db9"",""#48a782""]","[""#7f5d5d"",""#5f6f81""]","[980,1644]","1","30","[0.455,0.475,0.559,0.323]","1","0","false"
"","","","","","two-step-trial","38","301477","0.0-35.0-0.0","","","","","test3","undefinedundefined","undefined","[0,1]","1","1","1927","1","1","[2,3]","1","3","1488","1","[""#955db9"",""#48a782""]","[""#7f5d5d"",""#5f6f81""]","[980,1644]","1","31","[0.435,0.51,0.608,0.321]","1","0","false"
"","","","","","two-step-trial","39","306339","0.0-36.0-0.0","","","","","test3","undefinedundefined","undefined","[0,1]","1","1","1672","0","0","[0,1]","1","1","1178","0","[""#955db9"",""#48a782""]","[""#7f5d5d"",""#5f6f81""]","[980,1644]","1","32","[0.415,0.507,0.579,0.317]","1","0","false"
"","","","","","two-step-trial","40","312168","0.0-37.0-0.0","","","","","test3","undefinedundefined","undefined","[0,1]","1","1","1134","1","1","[2,3]","1","3","2681","0","[""#955db9"",""#48a782""]","[""#7f5d5d"",""#5f6f81""]","[980,1644]","1","33","[0.459,0.542,0.595,0.302]","1","0","false"
"","","","","","two-step-trial","41","319701","0.0-38.0-0.0","","","","","test3","undefinedundefined","undefined","[0,1]","1","1","3809","1","1","[2,3]","1","3","1711","0","[""#955db9"",""#48a782""]","[""#7f5d5d"",""#5f6f81""]","[980,1644]","1","34","[0.491,0.491,0.597,0.309]","1","0","false"
"","","","","","two-step-trial","42","325444","0.0-39.0-0.0","","","","","test3","undefinedundefined","undefined","[0,1]","1","1","2120","0","0","[0,1]","1","1","1610","1","[""#955db9"",""#48a782""]","[""#7f5d5d"",""#5f6f81""]","[980,1644]","1","35","[0.474,0.513,0.589,0.338]","1","0","false"
"","","","","","two-step-trial","43","337116","0.0-40.0-0.0","","","","","test3","undefinedundefined","undefined","[0,1]","1","1","1136","0","0","[0,1]","1","1","8523","1","[""#955db9"",""#48a782""]","[""#7f5d5d"",""#5f6f81""]","[980,1644]","1","36","[0.457,0.538,0.559,0.332]","1","0","false"
"","","","","","two-step-trial","44","350825","0.0-41.0-0.0","","","","","test3","undefinedundefined","undefined","[0,1]","1","1","6394","1","1","[2,3]","1","3","5301","0","[""#955db9"",""#48a782""]","[""#7f5d5d"",""#5f6f81""]","[980,1644]","1","37","[0.485,0.54,0.582,0.328]","1","0","false"
"","","","","","two-step-trial","45","355703","0.0-42.0-0.0","","","","","test3","undefinedundefined","undefined","[0,1]","1","1","1306","1","1","[2,3]","1","3","1558","0","[""#955db9"",""#48a782""]","[""#7f5d5d"",""#5f6f81""]","[980,1644]","1","38","[0.448,0.561,0.557,0.342]","1","0","false"
"","","","","","two-step-trial","46","360133","0.0-43.0-0.0","","","","","test3","undefinedundefined","undefined","[0,1]","1","1","1117","1","1","[2,3]","1","3","1300","1","[""#955db9"",""#48a782""]","[""#7f5d5d"",""#5f6f81""]","[980,1644]","1","39","[0.401,0.544,0.587,0.37]","1","0","false"
"","","","","","two-step-trial","47","364461","0.0-44.0-0.0","","","","","test3","undefinedundefined","undefined","[0,1]","1","1","1151","1","1","[2,3]","1","3","1161","1","[""#955db9"",""#48a782""]","[""#7f5d5d"",""#5f6f81""]","[980,1644]","1","40","[0.404,0.536,0.602,0.375]","1","0","false"
"","","","","","two-step-trial","48","369169","0.0-45.0-0.0","","","","","test3","undefinedundefined","undefined","[0,1]","1","1","1221","1","1","[2,3]","1","3","1474","0","[""#955db9"",""#48a782""]","[""#7f5d5d"",""#5f6f81""]","[980,1644]","1","41","[0.396,0.535,0.6,0.41]","1","0","false"
"","","","","","two-step-trial","49","373186","0.0-46.0-0.0","","","","","test3","undefinedundefined","undefined","[0,1]","1","1","1047","0","0","[0,1]","1","1","956","1","[""#955db9"",""#48a782""]","[""#7f5d5d"",""#5f6f81""]","[980,1644]","1","42","[0.406,0.554,0.6,0.432]","1","0","false"
"","","","","","two-step-trial","50","377479","0.0-47.0-0.0","","","","","test3","undefinedundefined","undefined","[0,1]","1","1","1067","1","1","[2,3]","1","3","1212","0","[""#955db9"",""#48a782""]","[""#7f5d5d"",""#5f6f81""]","[980,1644]","1","43","[0.381,0.564,0.612,0.443]","1","0","false"
"","","","","","two-step-trial","51","381442","0.0-48.0-0.0","","","","","test3","undefinedundefined","undefined","[0,1]","1","1","961","1","1","[2,3]","1","3","988","0","[""#955db9"",""#48a782""]","[""#7f5d5d"",""#5f6f81""]","[980,1644]","1","44","[0.375,0.564,0.659,0.454]","1","0","false"
"","","","","","two-step-trial","52","385701","0.0-49.0-0.0","","","","","test3","undefinedundefined","undefined","[0,1]","1","1","1170","1","1","[2,3]","1","3","1075","0","[""#955db9"",""#48a782""]","[""#7f5d5d"",""#5f6f81""]","[980,1644]","1","45","[0.37,0.592,0.676,0.446]","1","0","false"
"","","","","","two-step-trial","53","389910","0.0-50.0-0.0","","","","","test3","undefinedundefined","undefined","[0,1]","1","1","1100","1","1","[2,3]","1","3","1094","0","[""#955db9"",""#48a782""]","[""#7f5d5d"",""#5f6f81""]","[980,1644]","1","46","[0.369,0.571,0.682,0.419]","1","0","false"
"","","","","","two-step-trial","54","393942","0.0-51.0-0.0","","","","","test3","undefinedundefined","undefined","[0,1]","1","1","1029","1","1","[2,3]","1","3","988","1","[""#955db9"",""#48a782""]","[""#7f5d5d"",""#5f6f81""]","[980,1644]","1","47","[0.392,0.532,0.65,0.4]","1","0","false"
"","","","","","two-step-trial","55","398322","0.0-52.0-0.0","","","","","test3","undefinedundefined","undefined","[0,1]","1","1","1082","1","1","[2,3]","1","3","1282","0","[""#955db9"",""#48a782""]","[""#7f5d5d"",""#5f6f81""]","[980,1644]","1","48","[0.412,0.529,0.637,0.409]","1","0","false"
"","","","","","two-step-trial","56","402755","0.0-53.0-0.0","","","","","test3","undefinedundefined","undefined","[0,1]","1","1","1273","0","0","[0,1]","1","1","1145","1","[""#955db9"",""#48a782""]","[""#7f5d5d"",""#5f6f81""]","[980,1644]","1","49","[0.41,0.533,0.637,0.402]","1","0","false"
"","","","","","two-step-trial","57","408424","0.0-54.0-0.0","","","","","test3","undefinedundefined","undefined","[0,1]","1","1","1153","1","1","[2,3]","1","3","2503","0","[""#955db9"",""#48a782""]","[""#7f5d5d"",""#5f6f81""]","[980,1644]","1","50","[0.394,0.554,0.63,0.39]","1","0","false"
"","","","","","two-step-trial","58","412681","0.0-55.0-0.0","","","","","test3","undefinedundefined","undefined","[0,1]","1","1","1066","1","1","[2,3]","1","3","1179","0","[""#955db9"",""#48a782""]","[""#7f5d5d"",""#5f6f81""]","[980,1644]","1","51","[0.351,0.543,0.599,0.412]","1","0","false"
"","","","","","two-step-trial","59","417492","0.0-56.0-0.0","","","","","test3","undefinedundefined","undefined","[0,1]","1","1","1828","1","1","[2,3]","1","3","972","0","[""#955db9"",""#48a782""]","[""#7f5d5d"",""#5f6f81""]","[980,1644]","1","52","[0.355,0.541,0.573,0.402]","1","0","false"
"","","","","","two-step-trial","60","421478","0.0-57.0-0.0","","","","","test3","undefinedundefined","undefined","[0,1]","1","1","980","1","1","[2,3]","1","3","991","1","[""#955db9"",""#48a782""]","[""#7f5d5d"",""#5f6f81""]","[980,1644]","1","53","[0.35,0.565,0.6,0.385]","1","0","false"
"","","","","","two-step-trial","61","425443","0.0-58.0-0.0","","","","","test3","undefinedundefined","undefined","[0,1]","1","1","961","0","0","[0,1]","1","1","991","1","[""#955db9"",""#48a782""]","[""#7f5d5d"",""#5f6f81""]","[980,1644]","1","54","[0.367,0.543,0.601,0.392]","1","0","false"
"","","","","","two-step-trial","62","429338","0.0-59.0-0.0","","","","","test3","undefinedundefined","undefined","[0,1]","1","1","961","0","0","[0,1]","1","1","920","1","[""#955db9"",""#48a782""]","[""#7f5d5d"",""#5f6f81""]","[980,1644]","1","55","[0.341,0.54,0.588,0.372]","1","0","false"
"","","","","","two-step-trial","63","433530","0.0-60.0-0.0","","","","","test3","undefinedundefined","undefined","[0,1]","1","1","980","0","0","[0,1]","1","1","1198","1","[""#955db9"",""#48a782""]","[""#7f5d5d"",""#5f6f81""]","[980,1644]","1","56","[0.388,0.584,0.641,0.394]","1","0","false"
"","","","","","two-step-trial","64","437496","0.0-61.0-0.0","","","","","test3","undefinedundefined","undefined","[0,1]","1","1","993","1","1","[2,3]","1","3","956","1","[""#955db9"",""#48a782""]","[""#7f5d5d"",""#5f6f81""]","[980,1644]","1","57","[0.373,0.597,0.649,0.355]","1","0","false"
"","","","","","two-step-trial","65","441337","0.0-62.0-0.0","","","","","test3","undefinedundefined","undefined","[0,1]","1","1","907","1","1","[2,3]","1","3","922","1","[""#955db9"",""#48a782""]","[""#7f5d5d"",""#5f6f81""]","[980,1644]","1","58","[0.383,0.601,0.627,0.333]","1","0","false"
"","","","","","two-step-trial","66","445185","0.0-63.0-0.0","","","","","test3","undefinedundefined","undefined","[0,1]","1","1","945","1","1","[2,3]","1","3","888","0","[""#955db9"",""#48a782""]","[""#7f5d5d"",""#5f6f81""]","[980,1644]","1","59","[0.401,0.574,0.656,0.323]","1","0","false"
"","","","","","two-step-trial","67","449218","0.0-64.0-0.0","","","","","test3","undefinedundefined","undefined","[0,1]","1","1","943","1","1","[2,3]","0","2","1074","1","[""#955db9"",""#48a782""]","[""#7f5d5d"",""#5f6f81""]","[980,1644]","1","60","[0.433,0.567,0.64,0.284]","1","0","false"
"","","","","","two-step-trial","68","453186","0.0-65.0-0.0","","","","","test3","undefinedundefined","undefined","[0,1]","1","1","944","0","0","[0,1]","0","0","1008","1","[""#955db9"",""#48a782""]","[""#7f5d5d"",""#5f6f81""]","[980,1644]","1","61","[0.443,0.536,0.633,0.265]","1","0","false"
"","","","","","two-step-trial","69","456995","0.0-66.0-0.0","","","","","test3","undefinedundefined","undefined","[0,1]","1","1","872","1","1","[2,3]","0","2","922","1","[""#955db9"",""#48a782""]","[""#7f5d5d"",""#5f6f81""]","[980,1644]","1","62","[0.42,0.521,0.591,0.279]","1","0","false"
"","","","","","two-step-trial","70","460943","0.0-67.0-0.0","","","","","test3","undefinedundefined","undefined","[0,1]","1","1","925","0","0","[0,1]","0","0","1008","1","[""#955db9"",""#48a782""]","[""#7f5d5d"",""#5f6f81""]","[980,1644]","1","63","[0.392,0.519,0.612,0.319]","1","0","false"
"","","","","","two-step-trial","71","464955","0.0-68.0-0.0","","","","","test3","undefinedundefined","undefined","[0,1]","1","1","995","1","1","[2,3]","0","2","1008","1","[""#955db9"",""#48a782""]","[""#7f5d5d"",""#5f6f81""]","[980,1644]","1","64","[0.354,0.493,0.612,0.332]","1","0","false"
"","","","","","two-step-trial","72","468978","0.0-69.0-0.0","","","","","test3","undefinedundefined","undefined","[0,1]","1","1","948","1","1","[2,3]","0","2","1060","0","[""#955db9"",""#48a782""]","[""#7f5d5d"",""#5f6f81""]","[980,1644]","1","65","[0.379,0.495,0.568,0.327]","1","0","false"
"","","","","","two-step-trial","73","472907","0.0-70.0-0.0","","","","","test3","undefinedundefined","undefined","[0,1]","1","1","890","1","1","[2,3]","0","2","1023","1","[""#955db9"",""#48a782""]","[""#7f5d5d"",""#5f6f81""]","[980,1644]","1","66","[0.383,0.497,0.601,0.305]","1","0","false"
"","","","","","two-step-trial","74","477064","0.0-71.0-0.0","","","","","test3","undefinedundefined","undefined","[0,1]","1","1","1013","1","1","[2,3]","0","2","1129","0","[""#955db9"",""#48a782""]","[""#7f5d5d"",""#5f6f81""]","[980,1644]","1","67","[0.425,0.523,0.539,0.345]","1","0","false"
"","","","","","two-step-trial","75","481008","0.0-72.0-0.0","","","","","test3","undefinedundefined","undefined","[0,1]","1","1","943","1","1","[2,3]","1","3","989","1","[""#955db9"",""#48a782""]","[""#7f5d5d"",""#5f6f81""]","[980,1644]","1","68","[0.432,0.482,0.523,0.353]","1","0","false"
"","","","","","two-step-trial","76","485182","0.0-73.0-0.0","","","","","test3","undefinedundefined","undefined","[0,1]","1","1","1032","1","1","[2,3]","1","3","1127","1","[""#955db9"",""#48a782""]","[""#7f5d5d"",""#5f6f81""]","[980,1644]","1","69","[0.457,0.505,0.515,0.343]","1","0","false"
"","","","","","two-step-trial","77","489029","0.0-74.0-0.0","","","","","test3","undefinedundefined","undefined","[0,1]","1","1","944","1","1","[2,3]","1","3","887","1","[""#955db9"",""#48a782""]","[""#7f5d5d"",""#5f6f81""]","[980,1644]","1","70","[0.451,0.526,0.491,0.303]","1","0","false"
"","","","","","two-step-trial","78","492714","0.0-75.0-0.0","","","","","test3","undefinedundefined","undefined","[0,1]","1","1","804","1","1","[2,3]","1","3","871","1","[""#955db9"",""#48a782""]","[""#7f5d5d"",""#5f6f81""]","[980,1644]","1","71","[0.425,0.552,0.478,0.262]","1","0","false"
"","","","","","two-step-trial","79","496577","0.0-76.0-0.0","","","","","test3","undefinedundefined","undefined","[0,1]","1","1","895","1","1","[2,3]","1","3","955","0","[""#955db9"",""#48a782""]","[""#7f5d5d"",""#5f6f81""]","[980,1644]","1","72","[0.434,0.518,0.459,0.266]","1","0","false"
"","","","","","two-step-trial","80","500287","0.0-77.0-0.0","","","","","test3","undefinedundefined","undefined","[0,1]","1","1","842","1","1","[2,3]","1","3","853","0","[""#955db9"",""#48a782""]","[""#7f5d5d"",""#5f6f81""]","[980,1644]","1","73","[0.434,0.507,0.435,0.282]","1","0","false"
"","","","","","two-step-trial","81","504494","0.0-78.0-0.0","","","","","test3","undefinedundefined","undefined","[0,1]","1","1","925","0","0","[0,1]","1","1","1266","1","[""#955db9"",""#48a782""]","[""#7f5d5d"",""#5f6f81""]","[980,1644]","1","74","[0.474,0.468,0.425,0.256]","1","0","false"
"","","","","","two-step-trial","82","508457","0.0-79.0-0.0","","","","","test3","undefinedundefined","undefined","[0,1]","1","1","907","0","0","[0,1]","1","1","1041","0","[""#955db9"",""#48a782""]","[""#7f5d5d"",""#5f6f81""]","[980,1644]","1","75","[0.46,0.495,0.398,0.253]","1","0","false"
"","","","","","two-step-trial","83","514470","0.0-80.0-0.0","","","","","test3","undefinedundefined","undefined","[0,1]","1","1","1100","1","1","[2,3]","0","2","2905","0","[""#955db9"",""#48a782""]","[""#7f5d5d"",""#5f6f81""]","[980,1644]","1","76","[0.432,0.494,0.438,0.256]","1","0","false"
"","","","","","two-step-trial","84","519252","0.0-81.0-0.0","","","","","test3","undefinedundefined","undefined","[0,1]","1","1","1190","1","1","[2,3]","0","2","1577","1","[""#955db9"",""#48a782""]","[""#7f5d5d"",""#5f6f81""]","[819,1374]","1","77","[0.461,0.493,0.446,0.27]","1","0","false"
"","","","","","two-step-trial","85","523200","0.0-82.0-0.0","","","","","test3","undefinedundefined","undefined","[0,1]","1","1","977","1","1","[2,3]","0","2","956","0","[""#955db9"",""#48a782""]","[""#7f5d5d"",""#5f6f81""]","[819,1374]","1","78","[0.514,0.513,0.473,0.268]","1","0","false"
"","","","","","two-step-trial","86","527201","0.0-83.0-0.0","","","","","test3","undefinedundefined","undefined","[0,1]","1","1","1149","1","1","[2,3]","1","3","835","0","[""#955db9"",""#48a782""]","[""#7f5d5d"",""#5f6f81""]","[819,1374]","1","79","[0.504,0.552,0.491,0.291]","1","0","false"
"","","","","","two-step-trial","87","531148","0.0-84.0-0.0","","","","","test3","undefinedundefined","undefined","[0,1]","1","1","992","0","0","[0,1]","1","1","939","0","[""#955db9"",""#48a782""]","[""#7f5d5d"",""#5f6f81""]","[819,1374]","1","80","[0.513,0.538,0.46,0.295]","1","0","false"
"","","","","","two-step-trial","88","535888","0.0-85.0-0.0","","","","","test3","undefinedundefined","undefined","[0,1]","1","1","1046","1","1","[2,3]","1","3","1679","1","[""#955db9"",""#48a782""]","[""#7f5d5d"",""#5f6f81""]","[819,1374]","1","81","[0.523,0.491,0.47,0.326]","1","0","false"
"","","","","","two-step-trial","89","540132","0.0-86.0-0.0","","","","","test3","undefinedundefined","undefined","[0,1]","1","1","978","1","1","[2,3]","1","3","1249","0","[""#955db9"",""#48a782""]","[""#7f5d5d"",""#5f6f81""]","[819,1374]","1","82","[0.525,0.548,0.454,0.36]","1","0","false"
"","","","","","two-step-trial","90","544405","0.0-87.0-0.0","","","","","test3","undefinedundefined","undefined","[0,1]","1","1","1148","0","0","[0,1]","1","1","1111","1","[""#955db9"",""#48a782""]","[""#7f5d5d"",""#5f6f81""]","[819,1374]","1","83","[0.538,0.579,0.452,0.325]","1","0","false"
"","","","","","two-step-trial","91","551647","0.0-88.0-0.0","","","","","test3","undefinedundefined","undefined","[0,1]","1","1","3184","1","1","[2,3]","1","3","2042","0","[""#955db9"",""#48a782""]","[""#7f5d5d"",""#5f6f81""]","[819,1374]","1","84","[0.524,0.64,0.439,0.371]","1","0","false"
"","","","","","two-step-trial","92","555666","0.0-89.0-0.0","","","","","test3","undefinedundefined","undefined","[0,1]","1","1","907","0","0","[0,1]","1","1","1093","0","[""#955db9"",""#48a782""]","[""#7f5d5d"",""#5f6f81""]","[819,1374]","1","85","[0.524,0.637,0.455,0.377]","1","0","false"
"","","","","","two-step-trial","93","559871","0.0-90.0-0.0","","","","","test3","undefinedundefined","undefined","[0,1]","1","1","975","1","1","[2,3]","1","3","1215","1","[""#955db9"",""#48a782""]","[""#7f5d5d"",""#5f6f81""]","[819,1374]","1","86","[0.535,0.666,0.471,0.392]","1","0","false"
"","","","","","two-step-trial","94","564185","0.0-91.0-0.0","","","","","test3","undefinedundefined","undefined","[0,1]","1","1","1028","0","0","[0,1]","1","1","1267","0","[""#955db9"",""#48a782""]","[""#7f5d5d"",""#5f6f81""]","[819,1374]","1","87","[0.504,0.695,0.423,0.387]","1","0","false"
"","","","","","two-step-trial","95","568045","0.0-92.0-0.0","","","","","test3","undefinedundefined","undefined","[0,1]","1","1","904","0","0","[0,1]","1","1","938","0","[""#955db9"",""#48a782""]","[""#7f5d5d"",""#5f6f81""]","[819,1374]","1","88","[0.485,0.667,0.458,0.39]","1","0","false"
"","","","","","two-step-trial","96","571856","0.0-93.0-0.0","","","","","test3","undefinedundefined","undefined","[0,1]","1","1","914","1","1","[2,3]","1","3","870","0","[""#955db9"",""#48a782""]","[""#7f5d5d"",""#5f6f81""]","[819,1374]","1","89","[0.47,0.661,0.502,0.408]","1","0","false"
"","","","","","two-step-trial","97","575647","0.0-94.0-0.0","","","","","test3","undefinedundefined","undefined","[0,1]","1","1","853","1","1","[2,3]","1","3","919","0","[""#955db9"",""#48a782""]","[""#7f5d5d"",""#5f6f81""]","[819,1374]","1","90","[0.46,0.678,0.464,0.349]","1","0","false"
"","","","","","two-step-trial","98","579475","0.0-95.0-0.0","","","","","test3","undefinedundefined","undefined","[0,1]","1","1","940","1","1","[2,3]","1","3","870","0","[""#955db9"",""#48a782""]","[""#7f5d5d"",""#5f6f81""]","[819,1374]","1","91","[0.46,0.655,0.459,0.313]","1","0","false"
"","","","","","two-step-trial","99","583927","0.0-96.0-0.0","","","","","test3","undefinedundefined","undefined","[0,1]","1","1","1337","1","1","[2,3]","0","2","1098","0","[""#955db9"",""#48a782""]","[""#7f5d5d"",""#5f6f81""]","[819,1374]","1","92","[0.459,0.663,0.496,0.332]","1","0","false"
"","","","","","two-step-trial","100","587940","0.0-97.0-0.0","","","","","test3","undefinedundefined","undefined","[0,1]","1","1","1006","1","1","[2,3]","1","3","991","0","[""#955db9"",""#48a782""]","[""#7f5d5d"",""#5f6f81""]","[819,1374]","1","93","[0.47,0.662,0.476,0.3]","1","0","false"
"","","","","","two-step-trial","101","591853","0.0-98.0-0.0","","","","","test3","undefinedundefined","undefined","[0,1]","1","1","910","1","1","[2,3]","1","3","986","1","[""#955db9"",""#48a782""]","[""#7f5d5d"",""#5f6f81""]","[819,1374]","1","94","[0.495,0.666,0.452,0.265]","1","0","false"
"","","","","","two-step-trial","102","595681","0.0-99.0-0.0","","","","","test3","undefinedundefined","undefined","[0,1]","1","1","907","1","1","[2,3]","1","3","905","0","[""#955db9"",""#48a782""]","[""#7f5d5d"",""#5f6f81""]","[819,1374]","1","95","[0.524,0.697,0.448,0.345]","1","0","false"
"","","","","","two-step-trial","103","599611","0.0-100.0-0.0","","","","","test3","undefinedundefined","undefined","[0,1]","1","1","945","1","1","[2,3]","1","3","966","0","[""#955db9"",""#48a782""]","[""#7f5d5d"",""#5f6f81""]","[819,1374]","1","96","[0.524,0.681,0.435,0.338]","1","0","false"
"","","","","","two-step-trial","104","603520","0.0-101.0-0.0","","","","","test3","undefinedundefined","undefined","[0,1]","1","1","940","1","1","[2,3]","1","3","956","0","[""#955db9"",""#48a782""]","[""#7f5d5d"",""#5f6f81""]","[819,1374]","1","97","[0.542,0.675,0.441,0.363]","1","0","false"
"","","","","","two-step-trial","105","614474","0.0-102.0-0.0","","","","","test3","undefinedundefined","undefined","[0,1]","1","1","7313","1","1","[2,3]","1","3","1623","0","[""#955db9"",""#48a782""]","[""#7f5d5d"",""#5f6f81""]","[819,1374]","1","98","[0.542,0.7,0.418,0.358]","1","0","false"
"","","","","","two-step-trial","106","621993","0.0-103.0-0.0","","","","","test3","undefinedundefined","undefined","[0,1]","1","1","2113","1","1","[2,3]","1","3","3388","0","[""#955db9"",""#48a782""]","[""#7f5d5d"",""#5f6f81""]","[819,1374]","1","99","[0.586,0.735,0.41,0.338]","1","0","false"
"","","","","","two-step-trial","107","633060","0.0-104.0-0.0","","","","","test3","undefinedundefined","undefined","[0,1]","1","1","4974","1","1","[2,3]","1","3","4077","0","[""#955db9"",""#48a782""]","[""#7f5d5d"",""#5f6f81""]","[819,1374]","1","100","[0.591,0.693,0.426,0.36]","1","0","false"
"","","","","","two-step-instructions","108","642973","0.0-105.0","9902","","","[{""page_index"":0,""viewing_time"":7888},{""page_index"":1,""viewing_time"":2013.0000000001164}]","","","","","","","","","","","","","","","","","","","","","","",""
"","","","","","two-step-trial","109","647297","0.0-106.0-0.0","","","","","test3","undefinedundefined","undefined","[0,1]","1","1","1215","1","1","[2,3]","1","3","1094","0","[""#955db9"",""#48a782""]","[""#7f5d5d"",""#5f6f81""]","[819,1374]","1","101","[0.639,0.722,0.416,0.356]","1","0","false"
"","","","","","two-step-trial","110","657956","0.0-107.0-0.0","","","","","test3","undefinedundefined","undefined","[0,1]","1","1","3397","1","1","[2,3]","1","3","5245","0","[""#955db9"",""#48a782""]","[""#7f5d5d"",""#5f6f81""]","[819,1374]","1","102","[0.661,0.749,0.353,0.384]","1","0","false"
"","","","","","two-step-trial","111","668769","0.0-108.0-0.0","","","","","test3","undefinedundefined","undefined","[0,1]","1","1","3940","1","1","[2,3]","1","3","4852","1","[""#955db9"",""#48a782""]","[""#7f5d5d"",""#5f6f81""]","[819,1374]","1","103","[0.659,0.729,0.293,0.396]","1","0","false"
"","","","","","two-step-trial","112","688042","0.0-109.0-0.0","","","","","test3","undefinedundefined","undefined","[0,1]","1","1","3455","0","0","[0,1]","null","null","null","null","[""#955db9"",""#48a782""]","[""#7f5d5d"",""#5f6f81""]","[819,1374]","1","104","[0.615,0.721,0.288,0.378]","1","2","true"
"","","","","","two-step-trial","113","696392","0.0-109.1-0.1","","","","","test3","undefinedundefined","undefined","[0,1]","1","1","1093","0","0","[0,1]","1","1","5236","1","[""#955db9"",""#48a782""]","[""#7f5d5d"",""#5f6f81""]","[819,1374]","1","104","[0.615,0.721,0.288,0.378]","1","0","false"
"","","","","","two-step-trial","114","705278","0.0-110.0-0.0","","","","","test3","undefinedundefined","undefined","[0,1]","1","1","2089","1","1","[2,3]","1","3","4782","0","[""#955db9"",""#48a782""]","[""#7f5d5d"",""#5f6f81""]","[819,1374]","1","105","[0.562,0.742,0.297,0.343]","1","0","false"
"","","","","","two-step-trial","115","714075","0.0-111.0-0.0","","","","","test3","undefinedundefined","undefined","[0,1]","1","1","5137","1","1","[2,3]","1","3","1642","1","[""#955db9"",""#48a782""]","[""#7f5d5d"",""#5f6f81""]","[819,1374]","1","106","[0.532,0.742,0.25,0.332]","1","0","false"
"","","","","","two-step-trial","116","724493","0.0-112.0-0.0","","","","","test3","undefinedundefined","undefined","[0,1]","1","1","4854","0","0","[0,1]","1","1","3546","1","[""#955db9"",""#48a782""]","[""#7f5d5d"",""#5f6f81""]","[819,1374]","1","107","[0.531,0.742,0.255,0.33]","1","0","false"
"","","","","","two-step-trial","117","735281","0.0-113.0-0.0","","","","","test3","undefinedundefined","undefined","[0,1]","1","1","3643","0","0","[0,1]","1","1","5129","1","[""#955db9"",""#48a782""]","[""#7f5d5d"",""#5f6f81""]","[819,1374]","1","108","[0.576,0.733,0.281,0.338]","1","0","false"
"","","","","","two-step-trial","118","742004","0.0-114.0-0.0","","","","","test3","undefinedundefined","undefined","[0,1]","1","1","1823","0","0","[0,1]","1","1","2881","1","[""#955db9"",""#48a782""]","[""#7f5d5d"",""#5f6f81""]","[819,1374]","1","109","[0.593,0.74,0.277,0.333]","1","0","false"
"","","","","","two-step-trial","119","752397","0.0-115.0-0.0","","","","","test3","undefinedundefined","undefined","[0,1]","1","1","5636","1","1","[2,3]","1","3","2743","0","[""#955db9"",""#48a782""]","[""#7f5d5d"",""#5f6f81""]","[819,1374]","1","110","[0.57,0.735,0.318,0.349]","1","0","false"
"","","","","","two-step-trial","120","757019","0.0-116.0-0.0","","","","","test3","undefinedundefined","undefined","[0,1]","1","1","1548","1","1","[2,3]","1","3","1057","1","[""#955db9"",""#48a782""]","[""#7f5d5d"",""#5f6f81""]","[819,1374]","1","111","[0.566,0.726,0.306,0.333]","1","0","false"
"","","","","","two-step-trial","121","762797","0.0-117.0-0.0","","","","","test3","undefinedundefined","undefined","[0,1]","1","1","1706","1","1","[2,3]","1","3","2054","0","[""#955db9"",""#48a782""]","[""#7f5d5d"",""#5f6f81""]","[819,1374]","1","112","[0.552,0.734,0.35,0.354]","1","0","false"
"","","","","","two-step-trial","122","771227","0.0-118.0-0.0","","","","","test3","undefinedundefined","undefined","[0,1]","1","1","2473","1","1","[2,3]","1","3","3939","0","[""#955db9"",""#48a782""]","[""#7f5d5d"",""#5f6f81""]","[819,1374]","1","113","[0.503,0.684,0.352,0.329]","1","0","false"
"","","","","","two-step-trial","123","782488","0.0-119.0-0.0","","","","","test3","undefinedundefined","undefined","[0,1]","1","1","3065","1","1","[2,3]","1","3","6177","0","[""#955db9"",""#48a782""]","[""#7f5d5d"",""#5f6f81""]","[819,1374]","1","114","[0.517,0.664,0.374,0.314]","1","0","false"
"","","","","","two-step-trial","124","791435","0.0-120.0-0.0","","","","","test3","undefinedundefined","undefined","[0,1]","1","1","5925","1","1","[2,3]","1","3","1004","0","[""#955db9"",""#48a782""]","[""#7f5d5d"",""#5f6f81""]","[819,1374]","1","115","[0.505,0.635,0.405,0.281]","1","0","false"
"","","","","","two-step-trial","125","797111","0.0-121.0-0.0","","","","","test3","undefinedundefined","undefined","[0,1]","1","1","992","1","1","[2,3]","1","3","2662","0","[""#955db9"",""#48a782""]","[""#7f5d5d"",""#5f6f81""]","[819,1374]","1","116","[0.506,0.651,0.43,0.328]","1","0","false"
"","","","","","two-step-trial","126","803429","0.0-122.0-0.0","","","","","test3","undefinedundefined","undefined","[0,1]","1","1","1611","1","1","[2,3]","1","3","2691","0","[""#955db9"",""#48a782""]","[""#7f5d5d"",""#5f6f81""]","[651,1092]","1","117","[0.524,0.623,0.426,0.298]","1","0","false"
"","","","","","two-step-trial","127","810164","0.0-123.0-0.0","","","","","test3","undefinedundefined","undefined","[0,1]","1","1","1082","1","1","[2,3]","1","3","3632","0","[""#955db9"",""#48a782""]","[""#7f5d5d"",""#5f6f81""]","[980,1644]","1","118","[0.512,0.652,0.411,0.294]","1","0","false"
"","","","","","two-step-trial","128","817589","0.0-124.0-0.0","","","","","test3","undefinedundefined","undefined","[0,1]","1","1","3173","1","1","[2,3]","1","3","2148","1","[""#955db9"",""#48a782""]","[""#7f5d5d"",""#5f6f81""]","[980,1644]","1","119","[0.502,0.652,0.413,0.344]","1","0","false"
"","","","","","two-step-trial","129","828018","0.0-125.0-0.0","","","","","test3","undefinedundefined","undefined","[0,1]","1","1","3479","0","0","[0,1]","1","1","4931","1","[""#955db9"",""#48a782""]","[""#7f5d5d"",""#5f6f81""]","[980,1644]","1","120","[0.482,0.631,0.394,0.33]","1","0","false"
"","","","","","two-step-trial","130","840709","0.0-126.0-0.0","","","","","test3","undefinedundefined","undefined","[0,1]","1","1","9153","1","1","[2,3]","1","3","1522","1","[""#955db9"",""#48a782""]","[""#7f5d5d"",""#5f6f81""]","[980,1644]","1","121","[0.447,0.633,0.361,0.325]","1","0","false"
"","","","","","two-step-trial","131","848248","0.0-127.0-0.0","","","","","test3","undefinedundefined","undefined","[0,1]","1","1","3078","1","1","[2,3]","1","3","2442","0","[""#955db9"",""#48a782""]","[""#7f5d5d"",""#5f6f81""]","[980,1644]","1","122","[0.451,0.597,0.354,0.284]","1","0","false"
"","","","","","two-step-trial","132","855297","0.0-128.0-0.0","","","","","test3","undefinedundefined","undefined","[0,1]","1","1","3126","1","1","[2,3]","1","3","1905","0","[""#955db9"",""#48a782""]","[""#7f5d5d"",""#5f6f81""]","[980,1644]","1","123","[0.511,0.55,0.353,0.29]","1","0","false"
"","","","","","two-step-trial","133","869330","0.0-129.0-0.0","","","","","test3","undefinedundefined","undefined","[0,1]","1","1","7321","1","1","[2,3]","1","3","4691","0","[""#955db9"",""#48a782""]","[""#7f5d5d"",""#5f6f81""]","[980,1644]","1","124","[0.523,0.509,0.361,0.326]","1","0","false"
"","","","","","two-step-trial","134","878210","0.0-130.0-0.0","","","","","test3","undefinedundefined","undefined","[0,1]","1","1","5560","1","1","[2,3]","1","3","1301","0","[""#955db9"",""#48a782""]","[""#7f5d5d"",""#5f6f81""]","[980,1644]","1","125","[0.519,0.49,0.295,0.344]","1","0","false"
"","","","","","two-step-trial","135","888351","0.0-131.0-0.0","","","","","test3","undefinedundefined","undefined","[0,1]","1","1","938","0","0","[0,1]","1","1","7183","0","[""#955db9"",""#48a782""]","[""#7f5d5d"",""#5f6f81""]","[980,1644]","1","126","[0.525,0.444,0.287,0.34]","1","0","false"
"","","","","","two-step-trial","136","895054","0.0-132.0-0.0","","","","","test3","undefinedundefined","undefined","[0,1]","1","1","2935","1","1","[2,3]","1","3","1749","1","[""#955db9"",""#48a782""]","[""#7f5d5d"",""#5f6f81""]","[980,1644]","1","127","[0.473,0.463,0.278,0.293]","1","0","false"
"","","","","","two-step-trial","137","899963","0.0-133.0-0.0","","","","","test3","undefinedundefined","undefined","[0,1]","1","1","1340","0","0","[0,1]","1","1","1555","0","[""#955db9"",""#48a782""]","[""#7f5d5d"",""#5f6f81""]","[980,1644]","1","128","[0.496,0.47,0.277,0.271]","1","0","false"
"","","","","","two-step-trial","138","906587","0.0-134.0-0.0","","","","","test3","undefinedundefined","undefined","[0,1]","1","1","2706","1","1","[2,3]","1","3","1900","0","[""#955db9"",""#48a782""]","[""#7f5d5d"",""#5f6f81""]","[980,1644]","1","129","[0.477,0.48,0.264,0.281]","1","0","false"
"","","","","","two-step-trial","139","911244","0.0-135.0-0.0","","","","","test3","undefinedundefined","undefined","[0,1]","1","1","1566","1","1","[2,3]","1","3","1074","0","[""#955db9"",""#48a782""]","[""#7f5d5d"",""#5f6f81""]","[980,1644]","1","130","[0.494,0.486,0.258,0.258]","1","0","false"
"","","","","","two-step-trial","140","916349","0.0-136.0-0.0","","","","","test3","undefinedundefined","undefined","[0,1]","1","1","1128","1","1","[2,3]","1","3","1956","1","[""#955db9"",""#48a782""]","[""#7f5d5d"",""#5f6f81""]","[980,1644]","1","131","[0.493,0.471,0.325,0.274]","1","0","false"
"","","","","","two-step-trial","141","922460","0.0-137.0-0.0","","","","","test3","undefinedundefined","undefined","[0,1]","1","1","1110","0","0","[0,1]","1","1","2990","1","[""#955db9"",""#48a782""]","[""#7f5d5d"",""#5f6f81""]","[980,1644]","1","132","[0.495,0.414,0.29,0.261]","1","0","false"
"","","","","","two-step-trial","142","927219","0.0-138.0-0.0","","","","","test3","undefinedundefined","undefined","[0,1]","1","1","1485","0","0","[0,1]","1","1","1264","1","[""#955db9"",""#48a782""]","[""#7f5d5d"",""#5f6f81""]","[858,1439]","1","133","[0.486,0.393,0.318,0.253]","1","0","false"
"","","","","","two-step-trial","143","931244","0.0-139.0-0.0","","","","","test3","undefinedundefined","undefined","[0,1]","1","1","1002","1","1","[2,3]","1","3","1004","0","[""#955db9"",""#48a782""]","[""#7f5d5d"",""#5f6f81""]","[980,1644]","1","134","[0.485,0.381,0.329,0.268]","1","0","false"
"","","","","","two-step-trial","144","935677","0.0-140.0-0.0","","","","","test3","undefinedundefined","undefined","[0,1]","1","1","921","0","0","[0,1]","1","1","1489","1","[""#955db9"",""#48a782""]","[""#7f5d5d"",""#5f6f81""]","[980,1644]","1","135","[0.476,0.33,0.348,0.266]","1","0","false"
"","","","","","two-step-trial","145","942124","0.0-141.0-0.0","","","","","test3","undefinedundefined","undefined","[0,1]","1","1","2229","0","0","[0,1]","1","1","2198","0","[""#955db9"",""#48a782""]","[""#7f5d5d"",""#5f6f81""]","[980,1644]","1","136","[0.408,0.356,0.348,0.276]","1","0","false"
"","","","","","two-step-trial","146","951797","0.0-142.0-0.0","","","","","test3","undefinedundefined","undefined","[0,1]","1","1","4080","0","0","[0,1]","1","1","3572","0","[""#955db9"",""#48a782""]","[""#7f5d5d"",""#5f6f81""]","[980,1644]","1","137","[0.444,0.402,0.328,0.271]","1","0","false"
"","","","","","two-step-trial","147","961867","0.0-143.0-0.0","","","","","test3","undefinedundefined","undefined","[0,1]","1","1","4027","0","0","[0,1]","1","1","4022","0","[""#955db9"",""#48a782""]","[""#7f5d5d"",""#5f6f81""]","[980,1644]","1","138","[0.443,0.378,0.381,0.256]","1","0","false"
"","","","","","two-step-trial","148","966329","0.0-144.0-0.0","","","","","test3","undefinedundefined","undefined","[0,1]","1","1","1508","1","1","[2,3]","1","3","935","0","[""#955db9"",""#48a782""]","[""#7f5d5d"",""#5f6f81""]","[980,1644]","1","139","[0.465,0.376,0.423,0.302]","1","0","false"
"","","","","","two-step-trial","149","970883","0.0-145.0-0.0","","","","","test3","undefinedundefined","undefined","[0,1]","1","1","1146","1","1","[2,3]","1","3","1387","0","[""#955db9"",""#48a782""]","[""#7f5d5d"",""#5f6f81""]","[980,1644]","1","140","[0.503,0.356,0.419,0.307]","1","0","false"
"","","","","","two-step-trial","150","975361","0.0-146.0-0.0","","","","","test3","undefinedundefined","undefined","[0,1]","1","1","1316","1","1","[2,3]","1","3","1144","0","[""#955db9"",""#48a782""]","[""#7f5d5d"",""#5f6f81""]","[980,1644]","1","141","[0.498,0.362,0.406,0.333]","1","0","false"
"","","","","","two-step-trial","151","979760","0.0-147.0-0.0","","","","","test3","undefinedundefined","undefined","[0,1]","1","1","945","1","1","[2,3]","1","3","1435","0","[""#955db9"",""#48a782""]","[""#7f5d5d"",""#5f6f81""]","[980,1644]","1","142","[0.462,0.376,0.412,0.337]","1","0","false"
"","","","","","two-step-trial","152","983916","0.0-148.0-0.0","","","","","test3","undefinedundefined","undefined","[0,1]","1","1","977","1","1","[2,3]","1","3","1158","1","[""#955db9"",""#48a782""]","[""#7f5d5d"",""#5f6f81""]","[980,1644]","1","143","[0.494,0.345,0.399,0.358]","1","0","false"
"","","","","","two-step-trial","153","988033","0.0-149.0-0.0","","","","","test3","undefinedundefined","undefined","[0,1]","1","1","956","1","1","[2,3]","1","3","1144","0","[""#955db9"",""#48a782""]","[""#7f5d5d"",""#5f6f81""]","[980,1644]","1","144","[0.471,0.35,0.398,0.37]","1","0","false"
"","","","","","two-step-trial","154","992675","0.0-150.0-0.0","","","","","test3","undefinedundefined","undefined","[0,1]","1","1","1580","1","1","[2,3]","1","3","1042","1","[""#955db9"",""#48a782""]","[""#7f5d5d"",""#5f6f81""]","[980,1644]","1","145","[0.465,0.328,0.41,0.376]","1","0","false"
"","","","","","two-step-trial","155","1003709","0.0-151.0-0.0","","","","","test3","undefinedundefined","undefined","[0,1]","1","1","992","1","1","[2,3]","1","3","8011","1","[""#955db9"",""#48a782""]","[""#7f5d5d"",""#5f6f81""]","[980,1644]","1","146","[0.465,0.323,0.402,0.384]","1","3","false"
"","","","","","two-step-trial","156","1007730","0.0-152.0-0.0","","","","","test3","undefinedundefined","undefined","[0,1]","1","1","972","1","1","[2,3]","1","3","1017","0","[""#955db9"",""#48a782""]","[""#7f5d5d"",""#5f6f81""]","[980,1644]","1","147","[0.464,0.338,0.408,0.409]","1","0","false"
"","","","","","two-step-trial","157","1012072","0.0-153.0-0.0","","","","","test3","undefinedundefined","undefined","[0,1]","1","1","1210","1","1","[2,3]","1","3","1111","1","[""#955db9"",""#48a782""]","[""#7f5d5d"",""#5f6f81""]","[980,1644]","1","148","[0.439,0.323,0.426,0.358]","1","0","false"
"","","","","","two-step-trial","158","1016277","0.0-154.0-0.0","","","","","test3","undefinedundefined","undefined","[0,1]","1","1","1015","0","0","[0,1]","1","1","1170","0","[""#955db9"",""#48a782""]","[""#7f5d5d"",""#5f6f81""]","[980,1644]","1","149","[0.413,0.342,0.4,0.33]","1","0","false"
"","","","","","two-step-trial","159","1020400","0.0-155.0-0.0","","","","","test3","undefinedundefined","undefined","[0,1]","1","1","1112","1","1","[2,3]","1","3","989","0","[""#955db9"",""#48a782""]","[""#7f5d5d"",""#5f6f81""]","[980,1644]","1","150","[0.421,0.338,0.389,0.35]","1","0","false"
"","","","","","two-step-trial","160","1024417","0.0-156.0-0.0","","","","","test3","undefinedundefined","undefined","[0,1]","1","1","1058","1","1","[2,3]","1","3","939","1","[""#955db9"",""#48a782""]","[""#7f5d5d"",""#5f6f81""]","[980,1644]","1","151","[0.457,0.332,0.389,0.404]","1","0","false"
"","","","","","two-step-trial","161","1028431","0.0-157.0-0.0","","","","","test3","undefinedundefined","undefined","[0,1]","1","1","1078","1","1","[2,3]","1","3","918","1","[""#955db9"",""#48a782""]","[""#7f5d5d"",""#5f6f81""]","[980,1644]","1","152","[0.451,0.347,0.387,0.455]","1","0","false"
"","","","","","two-step-trial","162","1032604","0.0-158.0-0.0","","","","","test3","undefinedundefined","undefined","[0,1]","1","1","995","1","1","[2,3]","1","3","1157","0","[""#955db9"",""#48a782""]","[""#7f5d5d"",""#5f6f81""]","[980,1644]","1","153","[0.455,0.379,0.384,0.461]","1","0","false"
"","","","","","two-step-trial","163","1036765","0.0-159.0-0.0","","","","","test3","undefinedundefined","undefined","[0,1]","1","1","974","1","1","[2,3]","1","3","1166","1","[""#955db9"",""#48a782""]","[""#7f5d5d"",""#5f6f81""]","[980,1644]","1","154","[0.477,0.434,0.367,0.505]","1","0","false"
"","","","","","two-step-trial","164","1040728","0.0-160.0-0.0","","","","","test3","undefinedundefined","undefined","[0,1]","1","1","1019","0","0","[0,1]","1","1","922","0","[""#955db9"",""#48a782""]","[""#7f5d5d"",""#5f6f81""]","[980,1644]","1","155","[0.491,0.464,0.323,0.574]","1","0","false"
"","","","","","two-step-trial","165","1044810","0.0-161.0-0.0","","","","","test3","undefinedundefined","undefined","[0,1]","1","1","952","1","1","[2,3]","1","3","1110","1","[""#955db9"",""#48a782""]","[""#7f5d5d"",""#5f6f81""]","[980,1644]","1","156","[0.483,0.448,0.327,0.526]","1","0","false"
"","","","","","two-step-trial","166","1048948","0.0-162.0-0.0","","","","","test3","undefinedundefined","undefined","[0,1]","1","1","961","1","1","[2,3]","1","3","1157","0","[""#955db9"",""#48a782""]","[""#7f5d5d"",""#5f6f81""]","[980,1644]","1","157","[0.487,0.46,0.356,0.484]","1","0","false"
"","","","","","two-step-trial","167","1053121","0.0-163.0-0.0","","","","","test3","undefinedundefined","undefined","[0,1]","1","1","1098","1","1","[2,3]","1","3","1054","1","[""#955db9"",""#48a782""]","[""#7f5d5d"",""#5f6f81""]","[980,1644]","1","158","[0.49,0.425,0.346,0.544]","1","0","false"
"","","","","","two-step-trial","168","1057107","0.0-164.0-0.0","","","","","test3","undefinedundefined","undefined","[0,1]","1","1","1008","1","1","[2,3]","1","3","956","0","[""#955db9"",""#48a782""]","[""#7f5d5d"",""#5f6f81""]","[980,1644]","1","159","[0.485,0.447,0.307,0.531]","1","0","false"
"","","","","","two-step-trial","169","1061212","0.0-165.0-0.0","","","","","test3","undefinedundefined","undefined","[0,1]","1","1","1040","1","1","[2,3]","1","3","1043","0","[""#955db9"",""#48a782""]","[""#7f5d5d"",""#5f6f81""]","[980,1644]","1","160","[0.465,0.464,0.301,0.543]","1","0","false"
"","","","","","two-step-trial","170","1065329","0.0-166.0-0.0","","","","","test3","undefinedundefined","undefined","[0,1]","1","1","1108","1","1","[2,3]","1","3","991","0","[""#955db9"",""#48a782""]","[""#7f5d5d"",""#5f6f81""]","[980,1644]","1","161","[0.466,0.455,0.288,0.594]","1","0","false"
"","","","","","two-step-trial","171","1068826","0.0-167.0-0.0","","","","","test3","undefinedundefined","undefined","[0,1]","1","1","565","1","1","[2,3]","1","3","915","0","[""#955db9"",""#48a782""]","[""#7f5d5d"",""#5f6f81""]","[980,1644]","1","162","[0.468,0.462,0.275,0.625]","1","0","false"
"","","","","","two-step-trial","172","1077847","0.0-168.0-0.0","","","","","test3","undefinedundefined","undefined","[0,1]","1","1","2082","0","0","[0,1]","1","1","4917","0","[""#955db9"",""#48a782""]","[""#7f5d5d"",""#5f6f81""]","[980,1644]","1","163","[0.445,0.452,0.288,0.679]","1","0","false"
"","","","","","two-step-trial","173","1083878","0.0-169.0-0.0","","","","","test3","undefinedundefined","undefined","[0,1]","1","1","2509","1","1","[2,3]","1","3","1502","0","[""#955db9"",""#48a782""]","[""#7f5d5d"",""#5f6f81""]","[980,1644]","1","164","[0.462,0.409,0.287,0.678]","1","0","false"
"","","","","","two-step-trial","174","1089449","0.0-170.0-0.0","","","","","test3","undefinedundefined","undefined","[0,1]","1","1","888","1","1","[2,3]","1","3","2663","1","[""#955db9"",""#48a782""]","[""#7f5d5d"",""#5f6f81""]","[980,1644]","1","165","[0.47,0.412,0.26,0.656]","1","0","false"
"","","","","","two-step-trial","175","1093967","0.0-171.0-0.0","","","","","test3","undefinedundefined","undefined","[0,1]","1","1","1183","1","1","[2,3]","1","3","1315","1","[""#955db9"",""#48a782""]","[""#7f5d5d"",""#5f6f81""]","[980,1644]","1","166","[0.462,0.394,0.283,0.665]","1","0","false"
"","","","","","two-step-trial","176","1098104","0.0-172.0-0.0","","","","","test3","undefinedundefined","undefined","[0,1]","1","1","1006","0","0","[0,1]","1","1","1112","1","[""#955db9"",""#48a782""]","[""#7f5d5d"",""#5f6f81""]","[980,1644]","1","167","[0.49,0.357,0.285,0.698]","1","0","false"
"","","","","","two-step-trial","177","1102370","0.0-173.0-0.0","","","","","test3","undefinedundefined","undefined","[0,1]","1","1","1007","1","1","[2,3]","1","3","1236","0","[""#955db9"",""#48a782""]","[""#7f5d5d"",""#5f6f81""]","[980,1644]","1","168","[0.49,0.331,0.285,0.672]","1","0","false"
"","","","","","two-step-trial","178","1107116","0.0-174.0-0.0","","","","","test3","undefinedundefined","undefined","[0,1]","1","1","1257","0","0","[0,1]","1","1","1474","1","[""#955db9"",""#48a782""]","[""#7f5d5d"",""#5f6f81""]","[980,1644]","1","169","[0.505,0.363,0.304,0.715]","1","0","false"
"","","","","","two-step-trial","179","1111381","0.0-175.0-0.0","","","","","test3","undefinedundefined","undefined","[0,1]","1","1","978","1","1","[2,3]","1","3","1264","1","[""#955db9"",""#48a782""]","[""#7f5d5d"",""#5f6f81""]","[980,1644]","1","170","[0.533,0.347,0.279,0.676]","1","0","false"
"","","","","","two-step-trial","180","1115279","0.0-176.0-0.0","","","","","test3","undefinedundefined","undefined","[0,1]","1","1","937","1","1","[2,3]","1","3","939","1","[""#955db9"",""#48a782""]","[""#7f5d5d"",""#5f6f81""]","[980,1644]","1","171","[0.492,0.355,0.257,0.678]","1","0","false"
"","","","","","two-step-trial","181","1119380","0.0-177.0-0.0","","","","","test3","undefinedundefined","undefined","[0,1]","1","1","1073","1","1","[2,3]","1","3","1008","0","[""#955db9"",""#48a782""]","[""#7f5d5d"",""#5f6f81""]","[980,1644]","1","172","[0.525,0.348,0.267,0.658]","1","0","false"
"","","","","","two-step-trial","182","1123521","0.0-178.0-0.0","","","","","test3","undefinedundefined","undefined","[0,1]","1","1","975","1","1","[2,3]","1","3","1141","1","[""#955db9"",""#48a782""]","[""#7f5d5d"",""#5f6f81""]","[980,1644]","1","173","[0.555,0.318,0.254,0.657]","1","0","false"
"","","","","","two-step-trial","183","1127899","0.0-179.0-0.0","","","","","test3","undefinedundefined","undefined","[0,1]","1","1","1294","1","1","[2,3]","1","3","1059","0","[""#955db9"",""#48a782""]","[""#7f5d5d"",""#5f6f81""]","[980,1644]","1","174","[0.531,0.332,0.265,0.625]","1","0","false"
"","","","","","two-step-trial","184","1132054","0.0-180.0-0.0","","","","","test3","undefinedundefined","undefined","[0,1]","1","1","901","1","1","[2,3]","1","3","1232","0","[""#955db9"",""#48a782""]","[""#7f5d5d"",""#5f6f81""]","[980,1644]","1","175","[0.538,0.319,0.272,0.61]","1","0","false"
"","","","","","two-step-trial","185","1136070","0.0-181.0-0.0","","","","","test3","undefinedundefined","undefined","[0,1]","1","1","1009","1","1","[2,3]","1","3","987","1","[""#955db9"",""#48a782""]","[""#7f5d5d"",""#5f6f81""]","[980,1644]","1","176","[0.529,0.296,0.291,0.571]","1","0","false"
"","","","","","two-step-trial","186","1140349","0.0-182.0-0.0","","","","","test3","undefinedundefined","undefined","[0,1]","0","0","1201","0","1","[2,3]","0","2","1057","1","[""#955db9"",""#48a782""]","[""#7f5d5d"",""#5f6f81""]","[980,1644]","1","177","[0.534,0.282,0.25,0.578]","1","0","false"
"","","","","","two-step-trial","187","1144207","0.0-183.0-0.0","","","","","test3","undefinedundefined","undefined","[0,1]","0","0","938","1","0","[0,1]","0","0","898","0","[""#955db9"",""#48a782""]","[""#7f5d5d"",""#5f6f81""]","[980,1644]","1","178","[0.507,0.27,0.265,0.543]","1","0","false"
"","","","","","two-step-trial","188","1148451","0.0-184.0-0.0","","","","","test3","undefinedundefined","undefined","[0,1]","1","1","1284","1","1","[2,3]","1","3","940","1","[""#955db9"",""#48a782""]","[""#7f5d5d"",""#5f6f81""]","[980,1644]","1","179","[0.494,0.271,0.268,0.505]","1","0","false"
"","","","","","two-step-trial","189","1152333","0.0-185.0-0.0","","","","","test3","undefinedundefined","undefined","[0,1]","1","1","952","1","1","[2,3]","1","3","909","0","[""#955db9"",""#48a782""]","[""#7f5d5d"",""#5f6f81""]","[980,1644]","1","180","[0.512,0.313,0.276,0.491]","1","0","false"
"","","","","","two-step-trial","190","1156553","0.0-186.0-0.0","","","","","test3","undefinedundefined","undefined","[0,1]","1","1","1001","0","0","[0,1]","1","1","1198","0","[""#955db9"",""#48a782""]","[""#7f5d5d"",""#5f6f81""]","[980,1644]","1","181","[0.514,0.325,0.261,0.492]","1","0","false"
"","","","","","two-step-trial","191","1161155","0.0-187.0-0.0","","","","","test3","undefinedundefined","undefined","[0,1]","0","0","1355","1","0","[0,1]","0","0","1226","0","[""#955db9"",""#48a782""]","[""#7f5d5d"",""#5f6f81""]","[980,1644]","1","182","[0.509,0.326,0.269,0.531]","1","0","false"
"","","","","","two-step-trial","192","1165914","0.0-188.0-0.0","","","","","test3","undefinedundefined","undefined","[0,1]","1","1","1872","0","0","[0,1]","1","1","866","1","[""#955db9"",""#48a782""]","[""#7f5d5d"",""#5f6f81""]","[980,1644]","1","183","[0.508,0.289,0.288,0.567]","1","0","false"
"","","","","","two-step-trial","193","1171461","0.0-189.0-0.0","","","","","test3","undefinedundefined","undefined","[0,1]","1","1","1162","1","1","[2,3]","1","3","2371","1","[""#955db9"",""#48a782""]","[""#7f5d5d"",""#5f6f81""]","[980,1644]","1","184","[0.498,0.312,0.311,0.565]","1","0","false"
"","","","","","two-step-trial","194","1180566","0.0-190.0-0.0","","","","","test3","undefinedundefined","undefined","[0,1]","1","1","3875","0","0","[0,1]","1","1","3212","1","[""#955db9"",""#48a782""]","[""#7f5d5d"",""#5f6f81""]","[980,1644]","1","185","[0.493,0.302,0.291,0.554]","1","0","false"
