"success","timeout","failed_images","failed_audio","failed_video","trial_type","trial_index","time_elapsed","internal_node_id","rt","stimulus","response","view_history","record_id","session","project","state_1_ids","state_1_key","state_1_choice","state_1_rt","transition","state","state_2_ids","state_2_key","state_2_choice","state_2_rt","outcome","rocket_colors","planet_colors","screen_resolution","minimum_resolution","trial","drifts","drift_ix","browser_interactions","missing"
"true","false","[]","[]","[]","preload","0","199","0.0-0.0","","","","","","","","","","","","","","","","","","","","","","","","","","",""
"true","","","","","fullscreen","1","33532","0.0-1.0","","","","","","","","","","","","","","","","","","","","","","","","","","",""
"","","","","","image-button-response","2","52668","0.0-2.0","19125","","1","","","","","","","","","","","","","","","","","","","","","","","",""
"","","","","","two-step-instructions","3","67701","0.0-4.0","15040","","","[{""page_index"":0,""viewing_time"":4454.000000000007},{""page_index"":1,""viewing_time"":4683.999999999993},{""page_index"":2,""viewing_time"":5900}]","","","","","","","","","","","","","","","","","","","","","","",""
"","","","","","two-step-trial","4","75601","0.0-5.0-0.0","","","","","0mb","undefinedundefined","undefined","[0,1]","0","0","3437","1","0","[0,1]","0","0","2452","1","[""#486ea7"",""#a75248""]","[""#5b7c65"",""#706081""]","[980,401]","1","1","[0.77754939694634,0.628869370378107,0.411514675355676,0.48374038249648]","1","0","false"
"","","","","","two-step-trial","5","82212","0.0-6.0-0.0","","","","","0mb","undefinedundefined","undefined","[0,1]","0","0","3622","1","0","[0,1]","0","0","981","1","[""#486ea7"",""#a75248""]","[""#5b7c65"",""#706081""]","[980,401]","1","2","[0.728010341193036,0.632939064930025,0.376594997404785,0.503222630526124]","1","0","false"
"","","","","","two-step-trial","6","87261","0.0-7.0-0.0","","","","","0mb","undefinedundefined","undefined","[0,1]","0","0","1758","1","0","[0,1]","0","0","1280","1","[""#486ea7"",""#a75248""]","[""#5b7c65"",""#706081""]","[980,401]","1","3","[0.766462207330161,0.614114204555349,0.368958368279496,0.525027617110072]","1","0","false"
"","","","","","two-step-trial","7","92425","0.0-8.0-0.0","","","","","0mb","undefinedundefined","undefined","[0,1]","1","1","1741","1","1","[2,3]","0","2","1413","1","[""#486ea7"",""#a75248""]","[""#5b7c65"",""#706081""]","[980,401]","1","4","[0.750856026769416,0.678406530251279,0.391008012741583,0.507314505589291]","1","0","false"
"","","","","","two-step-trial","8","97878","0.0-9.0-0.0","","","","","0mb","undefinedundefined","undefined","[0,1]","1","1","2210","0","0","[0,1]","1","1","1231","1","[""#486ea7"",""#a75248""]","[""#5b7c65"",""#706081""]","[980,401]","1","5","[0.769379866088457,0.640772768491198,0.37456789062922,0.485020302970175]","1","0","false"
"","","","","","two-step-trial","9","103492","0.0-10.0-0.0","","","","","0mb","undefinedundefined","undefined","[0,1]","0","0","2289","1","0","[0,1]","0","0","1315","0","[""#486ea7"",""#a75248""]","[""#5b7c65"",""#706081""]","[980,401]","1","6","[0.729683481056127,0.650855103345906,0.39668273334501,0.503956019401732]","1","0","false"
"","","","","","two-step-trial","10","107876","0.0-11.0-0.0","","","","","0mb","undefinedundefined","undefined","[0,1]","1","1","1259","1","1","[2,3]","1","3","1115","1","[""#486ea7"",""#a75248""]","[""#5b7c65"",""#706081""]","[980,401]","1","7","[0.735601779354327,0.628211098999289,0.43794963435311,0.582536617131063]","1","0","false"
"","","","","","two-step-trial","11","112125","0.0-12.0-0.0","","","","","0mb","undefinedundefined","undefined","[0,1]","1","1","1191","1","1","[2,3]","0","2","1048","1","[""#486ea7"",""#a75248""]","[""#5b7c65"",""#706081""]","[980,401]","1","8","[0.731701301081516,0.661697934475997,0.430464054633023,0.605189223286075]","1","0","false"
"","","","","","two-step-trial","12","116341","0.0-13.0-0.0","","","","","0mb","undefinedundefined","undefined","[0,1]","0","0","1125","1","0","[0,1]","0","0","1080","1","[""#486ea7"",""#a75248""]","[""#5b7c65"",""#706081""]","[980,401]","1","9","[0.742422378523664,0.663097480792188,0.437826977791863,0.567462235438389]","1","0","false"
"","","","","","two-step-trial","13","120626","0.0-14.0-0.0","","","","","0mb","undefinedundefined","undefined","[0,1]","0","0","1224","1","0","[0,1]","0","0","1049","1","[""#486ea7"",""#a75248""]","[""#5b7c65"",""#706081""]","[980,401]","1","10","[0.770026616432775,0.621542930847143,0.462244256831203,0.602201652950964]","1","0","false"
"","","","","","two-step-trial","14","124943","0.0-15.0-0.0","","","","","0mb","undefinedundefined","undefined","[0,1]","0","0","1174","1","0","[0,1]","1","1","1130","0","[""#486ea7"",""#a75248""]","[""#5b7c65"",""#706081""]","[980,401]","1","11","[0.765235638457572,0.617929350511883,0.424339799895564,0.57803727902685]","1","0","false"
"","","","","","two-step-trial","15","128943","0.0-16.0-0.0","","","","","0mb","undefinedundefined","undefined","[0,1]","1","1","1090","0","0","[0,1]","1","1","898","1","[""#486ea7"",""#a75248""]","[""#5b7c65"",""#706081""]","[980,401]","1","12","[0.782280484428043,0.635594392379723,0.4281466544126,0.568136202127177]","1","0","false"
"","","","","","two-step-trial","16","133344","0.0-17.0-0.0","","","","","0mb","undefinedundefined","undefined","[0,1]","1","1","1124","1","1","[2,3]","1","3","1265","0","[""#486ea7"",""#a75248""]","[""#5b7c65"",""#706081""]","[980,401]","1","13","[0.764221468881935,0.639878735532183,0.439109100371614,0.560556081725153]","1","0","false"
"","","","","","two-step-trial","17","137528","0.0-18.0-0.0","","","","","0mb","undefinedundefined","undefined","[0,1]","1","1","1023","0","0","[0,1]","0","0","1147","0","[""#486ea7"",""#a75248""]","[""#5b7c65"",""#706081""]","[980,401]","1","14","[0.701629339284311,0.581859317853782,0.452502524004401,0.533946966307866]","1","0","false"
"","","","","","two-step-trial","18","141812","0.0-19.0-0.0","","","","","0mb","undefinedundefined","undefined","[0,1]","1","1","1007","0","0","[0,1]","0","0","1265","1","[""#486ea7"",""#a75248""]","[""#5b7c65"",""#706081""]","[980,401]","1","15","[0.671415536199956,0.534881941532373,0.43287331275084,0.556165735996697]","1","0","false"
"","","","","","two-step-trial","19","145978","0.0-20.0-0.0","","","","","0mb","undefinedundefined","undefined","[0,1]","1","1","923","1","1","[2,3]","0","2","1232","0","[""#486ea7"",""#a75248""]","[""#5b7c65"",""#706081""]","[980,401]","1","16","[0.657487703414634,0.585055849156915,0.406705370381625,0.569850715742337]","1","0","false"
"","","","","","two-step-trial","20","150079","0.0-21.0-0.0","","","","","0mb","undefinedundefined","undefined","[0,1]","0","0","990","0","1","[2,3]","0","2","1098","0","[""#486ea7"",""#a75248""]","[""#5b7c65"",""#706081""]","[980,401]","1","17","[0.613987923421858,0.560207283405004,0.443344412054337,0.586376820522815]","1","0","false"
"","","","","","two-step-trial","21","154512","0.0-22.0-0.0","","","","","0mb","undefinedundefined","undefined","[0,1]","0","0","974","1","0","[0,1]","0","0","1447","1","[""#486ea7"",""#a75248""]","[""#5b7c65"",""#706081""]","[980,401]","1","18","[0.603460685819246,0.551365698290831,0.416280566839638,0.597028593062263]","1","0","false"
"","","","","","two-step-trial","22","158994","0.0-23.0-0.0","","","","","0mb","undefinedundefined","undefined","[0,1]","0","0","1123","0","1","[2,3]","0","2","1345","1","[""#486ea7"",""#a75248""]","[""#5b7c65"",""#706081""]","[980,401]","1","19","[0.648190582749811,0.543684009889613,0.441291480640156,0.591795624067237]","1","0","false"
"","","","","","two-step-trial","23","163096","0.0-24.0-0.0","","","","","0mb","undefinedundefined","undefined","[0,1]","0","0","975","0","1","[2,3]","1","3","1113","0","[""#486ea7"",""#a75248""]","[""#5b7c65"",""#706081""]","[980,401]","1","20","[0.694182645891926,0.621410821193631,0.42489898424996,0.563890815677804]","1","0","false"
"","","","","","two-step-trial","24","168579","0.0-25.0-0.0","","","","","0mb","undefinedundefined","undefined","[0,1]","0","0","2258","1","0","[0,1]","1","1","1214","0","[""#486ea7"",""#a75248""]","[""#5b7c65"",""#706081""]","[980,401]","1","21","[0.664147829886554,0.628458473724513,0.42885636780605,0.558745738554132]","1","0","false"
"","","","","","two-step-trial","25","176029","0.0-26.0-0.0","","","","","0mb","undefinedundefined","undefined","[0,1]","1","1","4441","1","1","[2,3]","1","3","997","0","[""#486ea7"",""#a75248""]","[""#5b7c65"",""#706081""]","[980,401]","1","22","[0.668060188678145,0.628408483105104,0.414478614336995,0.520377864974641]","1","0","false"
"","","","","","two-step-trial","26","180414","0.0-27.0-0.0","","","","","0mb","undefinedundefined","undefined","[0,1]","0","0","1390","1","0","[0,1]","0","0","981","1","[""#486ea7"",""#a75248""]","[""#5b7c65"",""#706081""]","[980,401]","1","23","[0.658435065239316,0.645803378766126,0.422394527573992,0.515945014303108]","1","0","false"
"","","","","","two-step-trial","27","184597","0.0-28.0-0.0","","","","","0mb","undefinedundefined","undefined","[0,1]","0","0","1174","0","1","[2,3]","0","2","997","0","[""#486ea7"",""#a75248""]","[""#5b7c65"",""#706081""]","[980,401]","1","24","[0.640229679309841,0.714169018668082,0.431648483148239,0.504251661403413]","1","0","false"
"","","","","","two-step-trial","28","188563","0.0-29.0-0.0","","","","","0mb","undefinedundefined","undefined","[0,1]","1","1","1040","1","1","[2,3]","1","3","914","0","[""#486ea7"",""#a75248""]","[""#5b7c65"",""#706081""]","[980,401]","1","25","[0.622773897583703,0.72046962608599,0.419075246047785,0.475465477906175]","1","0","false"
"","","","","","two-step-trial","29","193564","0.0-30.0-0.0","","","","","0mb","undefinedundefined","undefined","[0,1]","0","0","1874","1","0","[0,1]","0","0","1113","0","[""#486ea7"",""#a75248""]","[""#5b7c65"",""#706081""]","[980,401]","1","26","[0.605960097283073,0.728333351870652,0.39525403775899,0.461245174250586]","1","0","false"
"","","","","","two-step-trial","30","197565","0.0-31.0-0.0","","","","","0mb","undefinedundefined","undefined","[0,1]","0","0","1158","0","1","[2,3]","1","3","830","0","[""#486ea7"",""#a75248""]","[""#5b7c65"",""#706081""]","[980,401]","1","27","[0.629577427784297,0.69991937039713,0.404602689512437,0.432105343434343]","1","0","false"
"","","","","","two-step-trial","31","201685","0.0-32.0-0.0","","","","","0mb","undefinedundefined","undefined","[0,1]","1","1","1006","1","1","[2,3]","1","3","1097","1","[""#486ea7"",""#a75248""]","[""#5b7c65"",""#706081""]","[980,401]","1","28","[0.669519450582327,0.732976195867697,0.383521338437939,0.407480459220472]","1","0","false"
"","","","","","two-step-trial","32","205782","0.0-33.0-0.0","","","","","0mb","undefinedundefined","undefined","[0,1]","1","1","1083","0","0","[0,1]","1","1","997","1","[""#486ea7"",""#a75248""]","[""#5b7c65"",""#706081""]","[980,401]","1","29","[0.68192651303878,0.780301143867794,0.431499031375274,0.389908954926092]","1","0","false"
"","","","","","two-step-trial","33","209632","0.0-34.0-0.0","","","","","0mb","undefinedundefined","undefined","[0,1]","1","1","972","1","1","[2,3]","1","3","864","1","[""#486ea7"",""#a75248""]","[""#5b7c65"",""#706081""]","[980,401]","1","30","[0.626453508582853,0.731727415129237,0.384708390261867,0.359841100871158]","1","0","false"
"","","","","","two-step-trial","34","213565","0.0-35.0-0.0","","","","","0mb","undefinedundefined","undefined","[0,1]","1","1","1007","1","1","[2,3]","1","3","913","0","[""#486ea7"",""#a75248""]","[""#5b7c65"",""#706081""]","[980,401]","1","31","[0.636247166848088,0.716461051360096,0.388844739055237,0.395924054486115]","1","0","false"
"","","","","","two-step-trial","35","217467","0.0-36.0-0.0","","","","","0mb","undefinedundefined","undefined","[0,1]","1","1","890","1","1","[2,3]","1","3","998","1","[""#486ea7"",""#a75248""]","[""#5b7c65"",""#706081""]","[980,401]","1","32","[0.620131540614509,0.715748370545536,0.390734779267685,0.420981165311732]","1","0","false"
"","","","","","two-step-trial","36","222971","0.0-37.0-0.0","","","","","0mb","undefinedundefined","undefined","[0,1]","1","1","2072","1","1","[2,3]","1","3","1418","1","[""#486ea7"",""#a75248""]","[""#5b7c65"",""#706081""]","[980,401]","1","33","[0.59122471596752,0.731736650043271,0.341049551055005,0.411707257629838]","1","0","false"
"","","","","","two-step-trial","37","227551","0.0-38.0-0.0","","","","","0mb","undefinedundefined","undefined","[0,1]","1","1","1251","0","0","[0,1]","1","1","1314","1","[""#486ea7"",""#a75248""]","[""#5b7c65"",""#706081""]","[980,401]","1","34","[0.568955409617816,0.67181438923778,0.33921639890536,0.372799086709045]","1","0","false"
"","","","","","two-step-trial","38","231851","0.0-39.0-0.0","","","","","0mb","undefinedundefined","undefined","[0,1]","1","1","1239","0","0","[0,1]","1","1","1048","0","[""#486ea7"",""#a75248""]","[""#5b7c65"",""#706081""]","[980,401]","1","35","[0.567405968929641,0.654677101700369,0.358157340702109,0.390758305456943]","1","0","false"
"","","","","","two-step-trial","39","235468","0.0-40.0-0.0","","","","","0mb","undefinedundefined","undefined","[0,1]","1","1","972","1","1","[2,3]","1","3","630","0","[""#486ea7"",""#a75248""]","[""#5b7c65"",""#706081""]","[980,401]","1","36","[0.609433278712614,0.609215487044441,0.381358659178956,0.384518887707055]","1","0","false"
"","","","","","two-step-trial","40","239985","0.0-41.0-0.0","","","","","0mb","undefinedundefined","undefined","[0,1]","0","0","1573","0","1","[2,3]","0","2","932","1","[""#486ea7"",""#a75248""]","[""#5b7c65"",""#706081""]","[980,401]","1","37","[0.651271500706538,0.602085312135435,0.384437277847484,0.420477787863174]","1","0","false"
"","","","","","two-step-trial","41","244038","0.0-42.0-0.0","","","","","0mb","undefinedundefined","undefined","[0,1]","0","0","1039","1","0","[0,1]","0","0","998","1","[""#486ea7"",""#a75248""]","[""#5b7c65"",""#706081""]","[980,401]","1","38","[0.591903503920347,0.578557759481316,0.371266763421572,0.424073497205562]","1","0","false"
"","","","","","two-step-trial","42","248153","0.0-43.0-0.0","","","","","0mb","undefinedundefined","undefined","[0,1]","0","0","1102","1","0","[0,1]","0","0","997","0","[""#486ea7"",""#a75248""]","[""#5b7c65"",""#706081""]","[980,401]","1","39","[0.600048575460309,0.614462515001817,0.379046531476898,0.41591860100977]","1","0","false"
"","","","","","two-step-trial","43","252419","0.0-44.0-0.0","","","","","0mb","undefinedundefined","undefined","[0,1]","0","0","1121","0","1","[2,3]","0","2","1130","1","[""#486ea7"",""#a75248""]","[""#5b7c65"",""#706081""]","[980,401]","1","40","[0.607933620684008,0.642246243593552,0.352302925593879,0.425512950175147]","1","0","false"
"","","","","","two-step-trial","44","256651","0.0-45.0-0.0","","","","","0mb","undefinedundefined","undefined","[0,1]","0","0","1122","0","1","[2,3]","0","2","1096","0","[""#486ea7"",""#a75248""]","[""#5b7c65"",""#706081""]","[980,401]","1","41","[0.636464375504167,0.621823017568862,0.369374404547726,0.404305879249584]","1","0","false"
"","","","","","two-step-trial","45","260985","0.0-46.0-0.0","","","","","0mb","undefinedundefined","undefined","[0,1]","0","0","1111","1","0","[0,1]","0","0","1210","1","[""#486ea7"",""#a75248""]","[""#5b7c65"",""#706081""]","[980,401]","1","42","[0.667018972263737,0.592408861362914,0.359952750018451,0.440232205515752]","1","0","false"
"","","","","","two-step-trial","46","265288","0.0-47.0-0.0","","","","","0mb","undefinedundefined","undefined","[0,1]","0","0","957","0","1","[2,3]","0","2","1332","1","[""#486ea7"",""#a75248""]","[""#5b7c65"",""#706081""]","[980,401]","1","43","[0.688187489917205,0.602225225657186,0.358951194551931,0.377776627029692]","1","0","false"
"","","","","","two-step-trial","47","269209","0.0-48.0-0.0","","","","","0mb","undefinedundefined","undefined","[0,1]","0","0","1021","0","1","[2,3]","0","2","880","0","[""#486ea7"",""#a75248""]","[""#5b7c65"",""#706081""]","[980,401]","1","44","[0.693792756641653,0.592116231639461,0.341823563380771,0.363134152034301]","1","0","false"
"","","","","","two-step-trial","48","273204","0.0-49.0-0.0","","","","","0mb","undefinedundefined","undefined","[0,1]","0","0","865","1","0","[0,1]","0","0","1112","1","[""#486ea7"",""#a75248""]","[""#5b7c65"",""#706081""]","[980,401]","1","45","[0.678189415914377,0.574442289238944,0.380022009103784,0.388275191141637]","1","0","false"
"","","","","","two-step-trial","49","278407","0.0-50.0-0.0","","","","","0mb","undefinedundefined","undefined","[0,1]","0","0","1456","1","0","[0,1]","0","0","1730","1","[""#486ea7"",""#a75248""]","[""#5b7c65"",""#706081""]","[980,401]","1","46","[0.683653661942901,0.537247916497141,0.412970227572385,0.367708885782431]","1","0","false"
"","","","","","two-step-trial","50","282570","0.0-51.0-0.0","","","","","0mb","undefinedundefined","undefined","[0,1]","0","0","1053","1","0","[0,1]","0","0","1095","1","[""#486ea7"",""#a75248""]","[""#5b7c65"",""#706081""]","[980,401]","1","47","[0.653856877556627,0.553829919292417,0.393278636205132,0.38111943356324]","1","0","false"
"","","","","","two-step-trial","51","287955","0.0-52.0-0.0","","","","","0mb","undefinedundefined","undefined","[0,1]","0","0","2208","1","0","[0,1]","0","0","1165","0","[""#486ea7"",""#a75248""]","[""#5b7c65"",""#706081""]","[980,401]","1","48","[0.692463679191403,0.522223308655197,0.334593975632824,0.364788390382361]","1","0","false"
"","","","","","two-step-trial","52","292506","0.0-53.0-0.0","","","","","0mb","undefinedundefined","undefined","[0,1]","0","0","1356","0","1","[2,3]","0","2","1181","1","[""#486ea7"",""#a75248""]","[""#5b7c65"",""#706081""]","[980,401]","1","49","[0.720699350863914,0.506440553067894,0.338321449722633,0.410932946144639]","1","0","false"
"","","","","","two-step-trial","53","296973","0.0-54.0-0.0","","","","","0mb","undefinedundefined","undefined","[0,1]","0","0","1205","1","0","[0,1]","0","0","1248","0","[""#486ea7"",""#a75248""]","[""#5b7c65"",""#706081""]","[980,401]","1","50","[0.73778782162741,0.52144060385605,0.333828282087907,0.420685809565162]","1","0","false"
"","","","","","two-step-trial","54","301087","0.0-55.0-0.0","","","","","0mb","undefinedundefined","undefined","[0,1]","0","0","1139","0","1","[2,3]","0","2","961","1","[""#486ea7"",""#a75248""]","[""#5b7c65"",""#706081""]","[980,401]","1","51","[0.742506693895339,0.517609599001296,0.32482814559306,0.461353429197222]","1","0","false"
"","","","","","two-step-trial","55","305223","0.0-56.0-0.0","","","","","0mb","undefinedundefined","undefined","[0,1]","0","0","1090","1","0","[0,1]","0","0","1030","0","[""#486ea7"",""#a75248""]","[""#5b7c65"",""#706081""]","[980,401]","1","52","[0.752725621530979,0.486302261197492,0.348533596058449,0.473043920004453]","1","0","false"
"","","","","","two-step-trial","56","310126","0.0-57.0-0.0","","","","","0mb","undefinedundefined","undefined","[0,1]","0","0","1890","1","0","[0,1]","0","0","997","1","[""#486ea7"",""#a75248""]","[""#5b7c65"",""#706081""]","[980,401]","1","53","[0.757583701073848,0.481564151821382,0.32086863977635,0.463224549741815]","1","0","false"
"","","","","","two-step-trial","57","314192","0.0-58.0-0.0","","","","","0mb","undefinedundefined","undefined","[0,1]","0","0","1003","1","0","[0,1]","0","0","1046","1","[""#486ea7"",""#a75248""]","[""#5b7c65"",""#706081""]","[980,401]","1","54","[0.744198372024838,0.493443534682576,0.305333749312309,0.458234667850068]","1","0","false"
"","","","","","two-step-trial","58","318342","0.0-59.0-0.0","","","","","0mb","undefinedundefined","undefined","[0,1]","0","0","971","0","1","[2,3]","0","2","1164","1","[""#486ea7"",""#a75248""]","[""#5b7c65"",""#706081""]","[980,401]","1","55","[0.726388199319124,0.488136990555633,0.332287308890806,0.482831748345454]","1","0","false"
"","","","","","two-step-trial","59","326107","0.0-60.0-0.0","","","","","0mb","undefinedundefined","undefined","[0,1]","0","0","942","1","0","[0,1]","0","0","4809","0","[""#486ea7"",""#a75248""]","[""#5b7c65"",""#706081""]","[980,401]","1","56","[0.751226133175923,0.438369249771933,0.275184326318179,0.484296478088947]","1","0","false"
"","","","","","two-step-trial","60","330677","0.0-61.0-0.0","","","","","0mb","undefinedundefined","undefined","[0,1]","0","0","1324","1","0","[0,1]","0","0","1231","0","[""#486ea7"",""#a75248""]","[""#5b7c65"",""#706081""]","[980,401]","1","57","[0.68706613247323,0.474536820673202,0.273546418698082,0.507542112330629]","1","0","false"
"","","","","","two-step-trial","61","335077","0.0-62.0-0.0","","","","","0mb","undefinedundefined","undefined","[0,1]","1","1","1071","0","0","[0,1]","1","1","1314","1","[""#486ea7"",""#a75248""]","[""#5b7c65"",""#706081""]","[980,401]","1","58","[0.65981491285985,0.46207432111636,0.290857703603744,0.446072515535291]","1","0","false"
"","","","","","two-step-trial","62","339093","0.0-63.0-0.0","","","","","0mb","undefinedundefined","undefined","[0,1]","0","0","976","1","0","[0,1]","0","0","1026","1","[""#486ea7"",""#a75248""]","[""#5b7c65"",""#706081""]","[980,401]","1","59","[0.677526052694099,0.462938244542902,0.27441930514681,0.392466963990376]","1","0","false"
"","","","","","two-step-trial","63","343243","0.0-64.0-0.0","","","","","0mb","undefinedundefined","undefined","[0,1]","1","1","1156","0","0","[0,1]","1","1","980","0","[""#486ea7"",""#a75248""]","[""#5b7c65"",""#706081""]","[980,401]","1","60","[0.651036999183816,0.453121692802447,0.245220073708556,0.371202454302051]","1","0","false"
"","","","","","two-step-trial","64","347345","0.0-65.0-0.0","","","","","0mb","undefinedundefined","undefined","[0,1]","0","0","1007","0","1","[2,3]","0","2","1081","1","[""#486ea7"",""#a75248""]","[""#5b7c65"",""#706081""]","[980,401]","1","61","[0.650938743240486,0.429630401121317,0.259854285787237,0.376205943543722]","1","0","false"
"","","","","","two-step-trial","65","351596","0.0-66.0-0.0","","","","","0mb","undefinedundefined","undefined","[0,1]","0","0","1121","1","0","[0,1]","0","0","1115","0","[""#486ea7"",""#a75248""]","[""#5b7c65"",""#706081""]","[980,401]","1","62","[0.673889795247152,0.442482061177393,0.287038632472395,0.352868679863704]","1","0","false"
"","","","","","two-step-trial","66","355560","0.0-67.0-0.0","","","","","0mb","undefinedundefined","undefined","[0,1]","1","1","1004","1","1","[2,3]","1","3","947","0","[""#486ea7"",""#a75248""]","[""#5b7c65"",""#706081""]","[980,401]","1","63","[0.636345473668662,0.396384469819745,0.294223372202898,0.369072933436911]","1","0","false"
"","","","","","two-step-trial","67","361727","0.0-68.0-0.0","","","","","0mb","undefinedundefined","undefined","[0,1]","1","1","2343","0","0","[0,1]","0","0","1810","0","[""#486ea7"",""#a75248""]","[""#5b7c65"",""#706081""]","[980,401]","1","64","[0.669201305388127,0.37613528605971,0.323945564457743,0.348092368005675]","1","0","false"
"","","","","","two-step-trial","68","365428","0.0-69.0-0.0","","","","","0mb","undefinedundefined","undefined","[0,1]","0","0","1041","1","0","[0,1]","0","0","646","1","[""#486ea7"",""#a75248""]","[""#5b7c65"",""#706081""]","[980,401]","1","65","[0.641075846657632,0.401827713928626,0.311239271205783,0.358681476196157]","1","0","false"
"","","","","","two-step-trial","69","369130","0.0-70.0-0.0","","","","","0mb","undefinedundefined","undefined","[0,1]","0","0","973","1","0","[0,1]","0","0","713","0","[""#486ea7"",""#a75248""]","[""#5b7c65"",""#706081""]","[980,401]","1","66","[0.652596252296108,0.404829822143238,0.273997696564337,0.397035500775139]","1","0","false"
"","","","","","two-step-trial","70","373730","0.0-71.0-0.0","","","","","0mb","undefinedundefined","undefined","[0,1]","0","0","1387","0","1","[2,3]","0","2","1195","1","[""#486ea7"",""#a75248""]","[""#5b7c65"",""#706081""]","[980,401]","1","67","[0.647639492423724,0.394208064551505,0.304528941293248,0.384688375018269]","1","0","false"
"","","","","","two-step-trial","71","378465","0.0-72.0-0.0","","","","","0mb","undefinedundefined","undefined","[0,1]","1","1","972","0","0","[0,1]","1","1","1748","1","[""#486ea7"",""#a75248""]","[""#5b7c65"",""#706081""]","[980,401]","1","68","[0.605755692741934,0.37728162860264,0.273700123976066,0.419648126957525]","1","0","false"
"","","","","","two-step-trial","72","383196","0.0-73.0-0.0","","","","","0mb","undefinedundefined","undefined","[0,1]","1","1","1070","1","1","[2,3]","1","3","1647","0","[""#486ea7"",""#a75248""]","[""#5b7c65"",""#706081""]","[980,401]","1","69","[0.601778382345686,0.362968042762392,0.276451404826105,0.411742852317498]","1","0","false"
"","","","","","two-step-trial","73","388282","0.0-74.0-0.0","","","","","0mb","undefinedundefined","undefined","[0,1]","1","1","1210","1","1","[2,3]","1","3","1861","0","[""#486ea7"",""#a75248""]","[""#5b7c65"",""#706081""]","[980,401]","1","70","[0.627549258366713,0.407575121865575,0.300319167654535,0.395447326820765]","1","0","false"
"","","","","","two-step-trial","74","392249","0.0-75.0-0.0","","","","","0mb","undefinedundefined","undefined","[0,1]","0","0","905","1","0","[0,1]","0","0","1046","1","[""#486ea7"",""#a75248""]","[""#5b7c65"",""#706081""]","[980,401]","1","71","[0.609534219785209,0.377421170735254,0.321447214009723,0.430316496616395]","1","0","false"
"","","","","","two-step-trial","75","396216","0.0-76.0-0.0","","","","","0mb","undefinedundefined","undefined","[0,1]","0","0","938","0","1","[2,3]","0","2","1012","1","[""#486ea7"",""#a75248""]","[""#5b7c65"",""#706081""]","[980,401]","1","72","[0.587694449702218,0.339246048300477,0.326033972688195,0.403271453048362]","1","0","false"
"","","","","","two-step-trial","76","399916","0.0-77.0-0.0","","","","","0mb","undefinedundefined","undefined","[0,1]","0","0","1054","1","0","[0,1]","0","0","630","0","[""#486ea7"",""#a75248""]","[""#5b7c65"",""#706081""]","[980,401]","1","73","[0.578570715635669,0.375560280446822,0.321781974258722,0.397022138152252]","1","0","false"
"","","","","","two-step-trial","77","404214","0.0-78.0-0.0","","","","","0mb","undefinedundefined","undefined","[0,1]","0","0","1238","0","1","[2,3]","0","2","1046","0","[""#486ea7"",""#a75248""]","[""#5b7c65"",""#706081""]","[980,401]","1","74","[0.613218523598403,0.368793840033217,0.330338486689675,0.407451133231405]","1","0","false"
"","","","","","two-step-trial","78","408451","0.0-79.0-0.0","","","","","0mb","undefinedundefined","undefined","[0,1]","0","0","1189","1","0","[0,1]","0","0","1030","1","[""#486ea7"",""#a75248""]","[""#5b7c65"",""#706081""]","[980,401]","1","75","[0.62650218757434,0.34627112411562,0.317971145734521,0.419803119151328]","1","0","false"
"","","","","","two-step-trial","79","412432","0.0-80.0-0.0","","","","","0mb","undefinedundefined","undefined","[0,1]","0","0","937","0","1","[2,3]","0","2","1029","1","[""#486ea7"",""#a75248""]","[""#5b7c65"",""#706081""]","[980,401]","1","76","[0.627376947257404,0.441154955075889,0.288835995724099,0.413321431651912]","1","0","false"
"","","","","","two-step-trial","80","416462","0.0-81.0-0.0","","","","","0mb","undefinedundefined","undefined","[0,1]","0","0","873","1","0","[0,1]","0","0","1145","0","[""#486ea7"",""#a75248""]","[""#5b7c65"",""#706081""]","[980,401]","1","77","[0.59287380892909,0.380747401594938,0.280098808213205,0.45157110271428]","1","0","false"
"","","","","","two-step-trial","81","420652","0.0-82.0-0.0","","","","","0mb","undefinedundefined","undefined","[0,1]","0","0","880","0","1","[2,3]","0","2","1294","0","[""#486ea7"",""#a75248""]","[""#5b7c65"",""#706081""]","[980,401]","1","78","[0.563847318063219,0.40590040732967,0.265205707983026,0.484101730936511]","1","0","false"
"","","","","","two-step-trial","82","424584","0.0-83.0-0.0","","","","","0mb","undefinedundefined","undefined","[0,1]","1","1","904","1","1","[2,3]","1","3","1014","0","[""#486ea7"",""#a75248""]","[""#5b7c65"",""#706081""]","[980,401]","1","79","[0.541176007374322,0.4088247733797,0.287062045517349,0.51722909430701]","1","0","false"
"","","","","","two-step-trial","83","428367","0.0-84.0-0.0","","","","","0mb","undefinedundefined","undefined","[0,1]","0","0","1208","1","0","[0,1]","0","0","559","1","[""#486ea7"",""#a75248""]","[""#5b7c65"",""#706081""]","[980,401]","1","80","[0.532103588958499,0.389401035282826,0.254428585981718,0.531456914623509]","1","0","false"
"","","","","","two-step-trial","84","432583","0.0-85.0-0.0","","","","","0mb","undefinedundefined","undefined","[0,1]","0","0","1088","1","0","[0,1]","0","0","1113","0","[""#486ea7"",""#a75248""]","[""#5b7c65"",""#706081""]","[980,401]","1","81","[0.513811557868291,0.47210483449086,0.294932212787623,0.515561791285548]","1","0","false"
"","","","","","two-step-trial","85","436785","0.0-86.0-0.0","","","","","0mb","undefinedundefined","undefined","[0,1]","1","1","1272","1","1","[2,3]","1","3","914","0","[""#486ea7"",""#a75248""]","[""#5b7c65"",""#706081""]","[980,401]","1","82","[0.53934695368072,0.463110080913949,0.294293595776769,0.503167592960522]","1","0","false"
"","","","","","two-step-trial","86","440885","0.0-87.0-0.0","","","","","0mb","undefinedundefined","undefined","[0,1]","0","0","959","1","0","[0,1]","0","0","1125","1","[""#486ea7"",""#a75248""]","[""#5b7c65"",""#706081""]","[980,401]","1","83","[0.5394881601436,0.463577179346504,0.297020370445057,0.502503448766322]","1","0","false"
"","","","","","two-step-trial","87","444885","0.0-88.0-0.0","","","","","0mb","undefinedundefined","undefined","[0,1]","0","0","856","0","1","[2,3]","0","2","1129","1","[""#486ea7"",""#a75248""]","[""#5b7c65"",""#706081""]","[980,401]","1","84","[0.545636365795789,0.506767172220063,0.276119089804349,0.509738743184102]","1","0","false"
"","","","","","two-step-trial","88","450749","0.0-89.0-0.0","","","","","0mb","undefinedundefined","undefined","[0,1]","1","1","2457","1","1","[2,3]","1","3","1394","0","[""#486ea7"",""#a75248""]","[""#5b7c65"",""#706081""]","[980,401]","1","85","[0.557315315705947,0.530233712911963,0.270261628907528,0.529045773133078]","1","0","false"
"","","","","","two-step-trial","89","454405","0.0-90.0-0.0","","","","","0mb","undefinedundefined","undefined","[0,1]","1","1","407","0","0","[0,1]","0","0","1234","1","[""#486ea7"",""#a75248""]","[""#5b7c65"",""#706081""]","[980,401]","1","86","[0.533892709594831,0.551785142315409,0.277665179896742,0.480246450015136]","1","0","false"
"","","","","","two-step-trial","90","458102","0.0-91.0-0.0","","","","","0mb","undefinedundefined","undefined","[0,1]","0","0","1155","0","1","[2,3]","0","2","528","0","[""#486ea7"",""#a75248""]","[""#5b7c65"",""#706081""]","[980,401]","1","87","[0.53960134020145,0.531279227654019,0.27933281703028,0.500938263392898]","1","0","false"
"","","","","","two-step-trial","91","461921","0.0-92.0-0.0","","","","","0mb","undefinedundefined","undefined","[0,1]","0","0","592","1","0","[0,1]","0","0","1209","1","[""#486ea7"",""#a75248""]","[""#5b7c65"",""#706081""]","[980,401]","1","88","[0.53731099229599,0.529246384818369,0.28858420695006,0.499448884166032]","1","0","false"
"","","","","","two-step-trial","92","465455","0.0-93.0-0.0","","","","","0mb","undefinedundefined","undefined","[0,1]","0","0","1121","1","0","[0,1]","0","0","398","1","[""#486ea7"",""#a75248""]","[""#5b7c65"",""#706081""]","[980,401]","1","89","[0.516743789033557,0.542865964416632,0.361369027001178,0.50460358049252]","1","0","false"
"","","","","","two-step-trial","93","469009","0.0-94.0-0.0","","","","","0mb","undefinedundefined","undefined","[0,1]","0","0","1004","0","1","[2,3]","0","2","533","0","[""#486ea7"",""#a75248""]","[""#5b7c65"",""#706081""]","[980,401]","1","90","[0.567255705958569,0.526761105716203,0.340214675984323,0.475430274870159]","1","0","false"
"","","","","","two-step-trial","94","472988","0.0-95.0-0.0","","","","","0mb","undefinedundefined","undefined","[0,1]","0","0","949","1","0","[0,1]","0","0","1013","1","[""#486ea7"",""#a75248""]","[""#5b7c65"",""#706081""]","[980,401]","1","91","[0.551277625774445,0.491153127346369,0.296551483951176,0.484308318017038]","1","0","false"
"","","","","","two-step-trial","95","476788","0.0-96.0-0.0","","","","","0mb","undefinedundefined","undefined","[0,1]","1","1","803","0","0","[0,1]","1","1","982","1","[""#486ea7"",""#a75248""]","[""#5b7c65"",""#706081""]","[980,401]","1","92","[0.574831436602599,0.5155613658354,0.294864238154867,0.448788694962926]","1","0","false"
"","","","","","two-step-trial","96","481123","0.0-97.0-0.0","","","","","0mb","undefinedundefined","undefined","[0,1]","1","1","1058","0","0","[0,1]","1","1","1260","1","[""#486ea7"",""#a75248""]","[""#5b7c65"",""#706081""]","[980,401]","1","93","[0.534709048867708,0.521256333888087,0.299162330998462,0.457766609223792]","1","0","false"
"","","","","","two-step-trial","97","484973","0.0-98.0-0.0","","","","","0mb","undefinedundefined","undefined","[0,1]","1","1","869","1","1","[2,3]","1","3","965","0","[""#486ea7"",""#a75248""]","[""#5b7c65"",""#706081""]","[980,401]","1","94","[0.618004770400835,0.529288870286899,0.30330241908906,0.438479287231016]","1","0","false"
"","","","","","two-step-trial","98","490807","0.0-99.0-0.0","","","","","0mb","undefinedundefined","undefined","[0,1]","1","1","1069","1","1","[2,3]","1","3","2748","1","[""#486ea7"",""#a75248""]","[""#5b7c65"",""#706081""]","[980,401]","1","95","[0.610807670720037,0.498343794892405,0.282391821615725,0.416587621827564]","1","0","false"
"","","","","","two-step-trial","99","495389","0.0-100.0-0.0","","","","","0mb","undefinedundefined","undefined","[0,1]","1","1","1136","1","1","[2,3]","1","3","1430","0","[""#486ea7"",""#a75248""]","[""#5b7c65"",""#706081""]","[980,401]","1","96","[0.576967455865373,0.511155619464882,0.291445725595527,0.419034302231984]","1","0","false"
"","","","","","two-step-trial","100","499906","0.0-101.0-0.0","","","","","0mb","undefinedundefined","undefined","[0,1]","1","1","1121","1","1","[2,3]","1","3","1380","0","[""#486ea7"",""#a75248""]","[""#5b7c65"",""#706081""]","[980,401]","1","97","[0.582725868898944,0.537970712283781,0.274285501774646,0.341279471676215]","1","0","false"
"","","","","","two-step-trial","101","504220","0.0-102.0-0.0","","","","","0mb","undefinedundefined","undefined","[0,1]","1","1","1224","1","1","[2,3]","1","3","1077","0","[""#486ea7"",""#a75248""]","[""#5b7c65"",""#706081""]","[980,401]","1","98","[0.549246680681537,0.461304013203674,0.291185762131987,0.337767053621739]","1","0","false"
"","","","","","two-step-trial","102","508441","0.0-103.0-0.0","","","","","0mb","undefinedundefined","undefined","[0,1]","0","0","1325","0","1","[2,3]","1","3","881","1","[""#486ea7"",""#a75248""]","[""#5b7c65"",""#706081""]","[980,401]","1","99","[0.53215702406423,0.45637761148073,0.306773099242677,0.351653657242752]","1","0","false"
"","","","","","two-step-trial","103","512690","0.0-104.0-0.0","","","","","0mb","undefinedundefined","undefined","[0,1]","1","1","1121","0","0","[0,1]","1","1","1113","0","[""#486ea7"",""#a75248""]","[""#5b7c65"",""#706081""]","[980,401]","1","100","[0.485762293015992,0.484784887207592,0.295679069389568,0.330788042323734]","1","0","false"
"","","","","","two-step-instructions","104","518783","0.0-105.0","6089.000000000058","","","[{""page_index"":0,""viewing_time"":3525.0000000001164},{""page_index"":1,""viewing_time"":2563}]","","","","","","","","","","","","","","","","","","","","","","",""
"","","","","","two-step-trial","105","523509","0.0-106.0-0.0","","","","","0mb","undefinedundefined","undefined","[0,1]","0","0","1479","1","0","[0,1]","1","1","1231","1","[""#486ea7"",""#a75248""]","[""#5b7c65"",""#706081""]","[980,401]","1","101","[0.526009987599957,0.464467809443136,0.263029847814798,0.34584680279419]","1","0","false"
"","","","","","two-step-trial","106","527626","0.0-107.0-0.0","","","","","0mb","undefinedundefined","undefined","[0,1]","0","0","1203","1","0","[0,1]","1","1","898","1","[""#486ea7"",""#a75248""]","[""#5b7c65"",""#706081""]","[980,401]","1","102","[0.523357012138546,0.479308509758696,0.264993583067415,0.306575525063613]","1","0","false"
"","","","","","two-step-trial","107","532260","0.0-108.0-0.0","","","","","0mb","undefinedundefined","undefined","[0,1]","0","0","1140","0","1","[2,3]","1","3","1477","0","[""#486ea7"",""#a75248""]","[""#5b7c65"",""#706081""]","[980,401]","1","103","[0.504853727205117,0.468237273923766,0.282309877346428,0.284531138510213]","1","0","false"
"","","","","","two-step-trial","108","536375","0.0-109.0-0.0","","","","","0mb","undefinedundefined","undefined","[0,1]","0","0","1037","0","1","[2,3]","0","2","1062","0","[""#486ea7"",""#a75248""]","[""#5b7c65"",""#706081""]","[980,401]","1","104","[0.521156003787046,0.434249929418837,0.271552077031868,0.309969257595696]","1","0","false"
"","","","","","two-step-trial","109","540479","0.0-110.0-0.0","","","","","0mb","undefinedundefined","undefined","[0,1]","0","0","987","1","0","[0,1]","1","1","1098","0","[""#486ea7"",""#a75248""]","[""#5b7c65"",""#706081""]","[980,401]","1","105","[0.531903062010648,0.454392694454363,0.228137905550567,0.350506439243594]","1","0","false"
"","","","","","two-step-trial","110","544744","0.0-111.0-0.0","","","","","0mb","undefinedundefined","undefined","[0,1]","0","0","1152","0","1","[2,3]","1","3","1097","0","[""#486ea7"",""#a75248""]","[""#5b7c65"",""#706081""]","[980,401]","1","106","[0.51947037743935,0.449958272753445,0.246631590794539,0.316010067391096]","1","0","false"
"","","","","","two-step-trial","111","548730","0.0-112.0-0.0","","","","","0mb","undefinedundefined","undefined","[0,1]","0","0","1036","1","0","[0,1]","0","0","932","0","[""#486ea7"",""#a75248""]","[""#5b7c65"",""#706081""]","[980,401]","1","107","[0.502487498195507,0.478884755259363,0.208710262789903,0.300451707189461]","1","0","false"
"","","","","","two-step-trial","112","552862","0.0-113.0-0.0","","","","","0mb","undefinedundefined","undefined","[0,1]","0","0","1101","0","1","[2,3]","0","2","1014","0","[""#486ea7"",""#a75248""]","[""#5b7c65"",""#706081""]","[980,401]","1","108","[0.507610890628389,0.504010241690372,0.257903881760891,0.268582623060973]","1","0","false"
"","","","","","two-step-trial","113","556813","0.0-114.0-0.0","","","","","0mb","undefinedundefined","undefined","[0,1]","1","1","952","1","1","[2,3]","1","3","981","0","[""#486ea7"",""#a75248""]","[""#5b7c65"",""#706081""]","[980,401]","1","109","[0.497303732798858,0.529186735407517,0.261148203157438,0.257469241319715]","1","0","false"
"","","","","","two-step-trial","114","560946","0.0-115.0-0.0","","","","","0mb","undefinedundefined","undefined","[0,1]","1","1","984","1","1","[2,3]","0","2","1132","1","[""#486ea7"",""#a75248""]","[""#5b7c65"",""#706081""]","[980,401]","1","110","[0.507814232956071,0.531202120444183,0.279795304289971,0.292825638527288]","1","0","false"
"","","","","","two-step-trial","115","564946","0.0-116.0-0.0","","","","","0mb","undefinedundefined","undefined","[0,1]","1","1","1034","0","0","[0,1]","0","0","948","1","[""#486ea7"",""#a75248""]","[""#5b7c65"",""#706081""]","[980,401]","1","111","[0.481591763888842,0.491814761597601,0.277273954559754,0.302926191398873]","1","0","false"
"","","","","","two-step-trial","116","569062","0.0-117.0-0.0","","","","","0mb","undefinedundefined","undefined","[0,1]","0","0","1070","0","1","[2,3]","0","2","1029","0","[""#486ea7"",""#a75248""]","[""#5b7c65"",""#706081""]","[980,401]","1","112","[0.501248853610509,0.468810403495678,0.2540393333372,0.282564343113414]","1","0","false"
"","","","","","two-step-trial","117","573064","0.0-118.0-0.0","","","","","0mb","undefinedundefined","undefined","[0,1]","0","0","1007","0","1","[2,3]","1","3","977","1","[""#486ea7"",""#a75248""]","[""#5b7c65"",""#706081""]","[980,401]","1","113","[0.508392465503968,0.50984034886997,0.260343253238774,0.32582435996727]","1","0","false"
"","","","","","two-step-trial","118","577229","0.0-119.0-0.0","","","","","0mb","undefinedundefined","undefined","[0,1]","0","0","1102","0","1","[2,3]","1","3","1046","0","[""#486ea7"",""#a75248""]","[""#5b7c65"",""#706081""]","[980,401]","1","114","[0.513297378306187,0.493726170083348,0.239481743305646,0.337270416999951]","1","0","false"
"","","","","","two-step-trial","119","581096","0.0-120.0-0.0","","","","","0mb","undefinedundefined","undefined","[0,1]","1","1","870","1","1","[2,3]","1","3","981","0","[""#486ea7"",""#a75248""]","[""#5b7c65"",""#706081""]","[980,401]","1","115","[0.530686024815516,0.476514084405057,0.245028852099487,0.319408385515775]","1","0","false"
"","","","","","two-step-trial","120","585047","0.0-121.0-0.0","","","","","0mb","undefinedundefined","undefined","[0,1]","1","1","1054","1","1","[2,3]","0","2","880","0","[""#486ea7"",""#a75248""]","[""#5b7c65"",""#706081""]","[980,401]","1","116","[0.529870275365168,0.500923584916757,0.263018187153931,0.286068224277956]","1","0","false"
"","","","","","two-step-trial","121","589280","0.0-122.0-0.0","","","","","0mb","undefinedundefined","undefined","[0,1]","1","1","985","1","1","[2,3]","1","3","1231","0","[""#486ea7"",""#a75248""]","[""#5b7c65"",""#706081""]","[980,401]","1","117","[0.542648511305136,0.524432320103511,0.274832953961896,0.25325252902976]","1","0","false"
"","","","","","two-step-trial","122","593699","0.0-123.0-0.0","","","","","0mb","undefinedundefined","undefined","[0,1]","0","0","1189","1","0","[0,1]","0","0","1211","1","[""#486ea7"",""#a75248""]","[""#5b7c65"",""#706081""]","[980,401]","1","118","[0.5427347065259,0.542540295868707,0.31392857821534,0.286910605937622]","1","0","false"
"","","","","","two-step-trial","123","597731","0.0-124.0-0.0","","","","","0mb","undefinedundefined","undefined","[0,1]","0","0","1068","0","1","[2,3]","0","2","948","0","[""#486ea7"",""#a75248""]","[""#5b7c65"",""#706081""]","[980,401]","1","119","[0.539661427674068,0.578770132357794,0.295245484782109,0.290977124175463]","1","0","false"
"","","","","","two-step-trial","124","601699","0.0-125.0-0.0","","","","","0mb","undefinedundefined","undefined","[0,1]","0","0","689","1","0","[0,1]","0","0","1261","1","[""#486ea7"",""#a75248""]","[""#5b7c65"",""#706081""]","[980,401]","1","120","[0.532239826827125,0.572929089776109,0.310991275511035,0.26297040008837]","1","0","false"
"","","","","","two-step-trial","125","605848","0.0-126.0-0.0","","","","","0mb","undefinedundefined","undefined","[0,1]","1","1","1186","1","1","[2,3]","1","3","947","0","[""#486ea7"",""#a75248""]","[""#5b7c65"",""#706081""]","[980,401]","1","121","[0.485419894226577,0.576808164448619,0.319306838695553,0.283529601056946]","1","0","false"
"","","","","","two-step-trial","126","610266","0.0-127.0-0.0","","","","","0mb","undefinedundefined","undefined","[0,1]","1","1","1089","1","1","[2,3]","0","2","1311","1","[""#486ea7"",""#a75248""]","[""#5b7c65"",""#706081""]","[980,401]","1","122","[0.505004199282354,0.566343605067318,0.337830208563498,0.269849425088366]","1","0","false"
"","","","","","two-step-trial","127","614447","0.0-128.0-0.0","","","","","0mb","undefinedundefined","undefined","[0,1]","0","0","1103","1","0","[0,1]","0","0","1061","1","[""#486ea7"",""#a75248""]","[""#5b7c65"",""#706081""]","[980,401]","1","123","[0.48074057696342,0.55875865613349,0.364537232394206,0.316426666145757]","1","0","false"
"","","","","","two-step-trial","128","618617","0.0-129.0-0.0","","","","","0mb","undefinedundefined","undefined","[0,1]","0","0","992","1","0","[0,1]","0","0","1161","0","[""#486ea7"",""#a75248""]","[""#5b7c65"",""#706081""]","[980,401]","1","124","[0.523371121700856,0.583800452941652,0.334021859912706,0.285115883199959]","1","0","false"
"","","","","","two-step-trial","129","622582","0.0-130.0-0.0","","","","","0mb","undefinedundefined","undefined","[0,1]","0","0","968","1","0","[0,1]","1","1","979","1","[""#486ea7"",""#a75248""]","[""#5b7c65"",""#706081""]","[980,401]","1","125","[0.561506647427373,0.557178027363244,0.313514068239661,0.282940305705702]","1","0","false"
"","","","","","two-step-trial","130","626751","0.0-131.0-0.0","","","","","0mb","undefinedundefined","undefined","[0,1]","0","0","1224","1","0","[0,1]","0","0","929","0","[""#486ea7"",""#a75248""]","[""#5b7c65"",""#706081""]","[980,401]","1","126","[0.592710278813976,0.517748840251518,0.299816533162112,0.256252536996558]","1","0","false"
"","","","","","two-step-trial","131","632100","0.0-132.0-0.0","","","","","0mb","undefinedundefined","undefined","[0,1]","0","0","1186","1","0","[0,1]","0","0","2145","1","[""#486ea7"",""#a75248""]","[""#5b7c65"",""#706081""]","[980,401]","1","127","[0.616081180745859,0.519905829554624,0.272651549113659,0.270916875192558]","1","0","false"
"","","","","","two-step-trial","132","636283","0.0-133.0-0.0","","","","","0mb","undefinedundefined","undefined","[0,1]","1","1","1040","1","1","[2,3]","1","3","1126","0","[""#486ea7"",""#a75248""]","[""#5b7c65"",""#706081""]","[980,401]","1","128","[0.611881999405741,0.530026972921766,0.264161167609388,0.247895237170707]","1","0","false"
"","","","","","two-step-trial","133","641900","0.0-134.0-0.0","","","","","0mb","undefinedundefined","undefined","[0,1]","0","0","1470","1","0","[0,1]","0","0","2130","1","[""#486ea7"",""#a75248""]","[""#5b7c65"",""#706081""]","[980,401]","1","129","[0.623656758052178,0.502294337278572,0.256417865946852,0.243471391889972]","1","0","false"
"","","","","","two-step-trial","134","646384","0.0-135.0-0.0","","","","","0mb","undefinedundefined","undefined","[0,1]","0","0","1424","1","0","[0,1]","0","0","1043","1","[""#486ea7"",""#a75248""]","[""#5b7c65"",""#706081""]","[980,401]","1","130","[0.603747702984765,0.506957728961805,0.249071657032597,0.218039074371385]","1","0","false"
"","","","","","two-step-trial","135","650486","0.0-136.0-0.0","","","","","0mb","undefinedundefined","undefined","[0,1]","0","0","1203","1","0","[0,1]","0","0","881","1","[""#486ea7"",""#a75248""]","[""#5b7c65"",""#706081""]","[980,401]","1","131","[0.611550207682454,0.499003002089324,0.262777097146583,0.250530358192312]","1","0","false"
"","","","","","two-step-trial","136","654584","0.0-137.0-0.0","","","","","0mb","undefinedundefined","undefined","[0,1]","0","0","1005","0","1","[2,3]","0","2","1077","0","[""#486ea7"",""#a75248""]","[""#5b7c65"",""#706081""]","[980,401]","1","132","[0.572745576855192,0.489718579335748,0.265906109061434,0.287275586785048]","1","0","false"
"","","","","","two-step-trial","137","658620","0.0-138.0-0.0","","","","","0mb","undefinedundefined","undefined","[0,1]","0","0","970","0","1","[2,3]","0","2","1048","0","[""#486ea7"",""#a75248""]","[""#5b7c65"",""#706081""]","[980,401]","1","133","[0.596525544460009,0.419999469517332,0.285533886501601,0.334657126818044]","1","0","false"
"","","","","","two-step-trial","138","662720","0.0-139.0-0.0","","","","","0mb","undefinedundefined","undefined","[0,1]","0","0","1123","1","0","[0,1]","0","0","960","1","[""#486ea7"",""#a75248""]","[""#5b7c65"",""#706081""]","[980,401]","1","134","[0.619222379387709,0.437725228334834,0.226014398988458,0.298145438731031]","1","0","false"
"","","","","","two-step-trial","139","666904","0.0-140.0-0.0","","","","","0mb","undefinedundefined","undefined","[0,1]","0","0","1253","1","0","[0,1]","0","0","913","1","[""#486ea7"",""#a75248""]","[""#5b7c65"",""#706081""]","[980,401]","1","135","[0.635850565942747,0.417383278284025,0.229622249352675,0.324702711814056]","1","0","false"
"","","","","","two-step-trial","140","671002","0.0-141.0-0.0","","","","","0mb","undefinedundefined","undefined","[0,1]","1","1","939","0","0","[0,1]","1","1","1141","0","[""#486ea7"",""#a75248""]","[""#5b7c65"",""#706081""]","[980,401]","1","136","[0.609235754705604,0.399826633665401,0.239665941634555,0.364284822384414]","1","0","false"
"","","","","","two-step-trial","141","675121","0.0-142.0-0.0","","","","","0mb","undefinedundefined","undefined","[0,1]","1","1","1036","1","1","[2,3]","1","3","1064","1","[""#486ea7"",""#a75248""]","[""#5b7c65"",""#706081""]","[980,401]","1","137","[0.6433853323789,0.409965958471155,0.24328729233743,0.38883054840253]","1","0","false"
"","","","","","two-step-trial","142","679453","0.0-143.0-0.0","","","","","0mb","undefinedundefined","undefined","[0,1]","1","1","1104","0","0","[0,1]","1","1","1209","1","[""#486ea7"",""#a75248""]","[""#5b7c65"",""#706081""]","[980,401]","1","138","[0.640762202124616,0.427687638897686,0.242313895454019,0.369598505145508]","1","0","false"
"","","","","","two-step-trial","143","683939","0.0-144.0-0.0","","","","","0mb","undefinedundefined","undefined","[0,1]","1","1","1386","1","1","[2,3]","1","3","1082","1","[""#486ea7"",""#a75248""]","[""#5b7c65"",""#706081""]","[980,401]","1","139","[0.669299059386294,0.421208049892616,0.247464340929138,0.338512636057119]","1","0","false"
"","","","","","two-step-trial","144","688088","0.0-145.0-0.0","","","","","0mb","undefinedundefined","undefined","[0,1]","1","1","1204","1","1","[2,3]","1","3","927","0","[""#486ea7"",""#a75248""]","[""#5b7c65"",""#706081""]","[980,401]","1","140","[0.672596633955715,0.43247007181813,0.251837843591043,0.367702117618574]","1","0","false"
"","","","","","two-step-trial","145","692321","0.0-146.0-0.0","","","","","0mb","undefinedundefined","undefined","[0,1]","1","1","1168","1","1","[2,3]","1","3","1047","0","[""#486ea7"",""#a75248""]","[""#5b7c65"",""#706081""]","[980,401]","1","141","[0.646469790587423,0.424900977919467,0.280507654880184,0.357462814317634]","1","0","false"
"","","","","","two-step-trial","146","696306","0.0-147.0-0.0","","","","","0mb","undefinedundefined","undefined","[0,1]","0","0","1008","1","0","[0,1]","0","0","961","1","[""#486ea7"",""#a75248""]","[""#5b7c65"",""#706081""]","[980,401]","1","142","[0.659487674181665,0.427819183503252,0.273497485807437,0.296288290664389]","1","0","false"
"","","","","","two-step-trial","147","700461","0.0-148.0-0.0","","","","","0mb","undefinedundefined","undefined","[0,1]","0","0","1018","1","0","[0,1]","0","0","1118","0","[""#486ea7"",""#a75248""]","[""#5b7c65"",""#706081""]","[980,401]","1","143","[0.65793279462653,0.449703822213491,0.237151232659092,0.33644424222083]","1","0","false"
"","","","","","two-step-trial","148","704574","0.0-149.0-0.0","","","","","0mb","undefinedundefined","undefined","[0,1]","1","1","1147","0","0","[0,1]","1","1","948","0","[""#486ea7"",""#a75248""]","[""#5b7c65"",""#706081""]","[980,401]","1","144","[0.65466045120568,0.414491135431999,0.245747936737078,0.346054757151758]","1","0","false"
"","","","","","two-step-trial","149","708633","0.0-150.0-0.0","","","","","0mb","undefinedundefined","undefined","[0,1]","0","0","988","0","1","[2,3]","0","2","1059","0","[""#486ea7"",""#a75248""]","[""#5b7c65"",""#706081""]","[980,401]","1","145","[0.665429094722997,0.454559710909123,0.26285066654657,0.312693150109042]","1","0","false"
"","","","","","two-step-trial","150","712472","0.0-151.0-0.0","","","","","0mb","undefinedundefined","undefined","[0,1]","0","0","893","1","0","[0,1]","1","1","929","1","[""#486ea7"",""#a75248""]","[""#5b7c65"",""#706081""]","[980,401]","1","146","[0.660352910866885,0.477282844271761,0.242074730066356,0.293992716632774]","1","0","false"
"","","","","","two-step-trial","151","716424","0.0-152.0-0.0","","","","","0mb","undefinedundefined","undefined","[0,1]","1","1","973","1","1","[2,3]","1","3","960","0","[""#486ea7"",""#a75248""]","[""#5b7c65"",""#706081""]","[980,401]","1","147","[0.641560437098242,0.474732113463645,0.223171560433596,0.32195126338453]","1","0","false"
"","","","","","two-step-trial","152","720493","0.0-153.0-0.0","","","","","0mb","undefinedundefined","undefined","[0,1]","1","1","1068","1","1","[2,3]","0","2","982","0","[""#486ea7"",""#a75248""]","[""#5b7c65"",""#706081""]","[980,401]","1","148","[0.637419491646941,0.433471666378907,0.214980467085612,0.356854358095767]","1","0","false"
"","","","","","two-step-trial","153","724458","0.0-154.0-0.0","","","","","0mb","undefinedundefined","undefined","[0,1]","0","0","1000","1","0","[0,1]","0","0","947","0","[""#486ea7"",""#a75248""]","[""#5b7c65"",""#706081""]","[980,401]","1","149","[0.62868915518846,0.45004591104196,0.228127363281284,0.362150291947543]","1","0","false"
"","","","","","two-step-trial","154","728373","0.0-155.0-0.0","","","","","0mb","undefinedundefined","undefined","[0,1]","0","0","935","0","1","[2,3]","1","3","962","0","[""#486ea7"",""#a75248""]","[""#5b7c65"",""#706081""]","[980,401]","1","150","[0.645135867144134,0.431176046417504,0.205973688526423,0.390535230926148]","1","0","false"
"","","","","","two-step-trial","155","732393","0.0-156.0-0.0","","","","","0mb","undefinedundefined","undefined","[0,1]","1","1","1073","1","1","[2,3]","0","2","928","0","[""#486ea7"",""#a75248""]","[""#5b7c65"",""#706081""]","[980,401]","1","151","[0.641476724319274,0.440571800983792,0.206698764041552,0.385154667162718]","1","0","false"
"","","","","","two-step-trial","156","736209","0.0-157.0-0.0","","","","","0mb","undefinedundefined","undefined","[0,1]","0","0","916","0","1","[2,3]","0","2","882","0","[""#486ea7"",""#a75248""]","[""#5b7c65"",""#706081""]","[980,401]","1","152","[0.657646600251407,0.391249867154103,0.216986119243765,0.356744458886159]","1","0","false"
"","","","","","two-step-trial","157","740493","0.0-158.0-0.0","","","","","0mb","undefinedundefined","undefined","[0,1]","0","0","917","1","0","[0,1]","1","1","1346","1","[""#486ea7"",""#a75248""]","[""#5b7c65"",""#706081""]","[980,401]","1","153","[0.655469901672327,0.398820911345328,0.242102866511925,0.398388836406119]","1","0","false"
"","","","","","two-step-trial","158","744493","0.0-159.0-0.0","","","","","0mb","undefinedundefined","undefined","[0,1]","0","0","954","1","0","[0,1]","0","0","1027","0","[""#486ea7"",""#a75248""]","[""#5b7c65"",""#706081""]","[980,401]","1","154","[0.715863678561023,0.38231888892983,0.226541870746285,0.410547225707112]","1","0","false"
"","","","","","two-step-trial","159","748460","0.0-160.0-0.0","","","","","0mb","undefinedundefined","undefined","[0,1]","0","0","1001","1","0","[0,1]","1","1","948","0","[""#486ea7"",""#a75248""]","[""#5b7c65"",""#706081""]","[980,401]","1","155","[0.715221832758564,0.398963224441749,0.238868039466791,0.436703664536562]","1","0","false"
"","","","","","two-step-trial","160","752410","0.0-161.0-0.0","","","","","0mb","undefinedundefined","undefined","[0,1]","0","0","1004","1","0","[0,1]","1","1","928","0","[""#486ea7"",""#a75248""]","[""#5b7c65"",""#706081""]","[980,401]","1","156","[0.695392769277001,0.400472042753666,0.203078176664807,0.428185040003802]","1","0","false"
"","","","","","two-step-trial","161","756397","0.0-162.0-0.0","","","","","0mb","undefinedundefined","undefined","[0,1]","0","0","1052","1","0","[0,1]","0","0","917","1","[""#486ea7"",""#a75248""]","[""#5b7c65"",""#706081""]","[980,401]","1","157","[0.718433975396313,0.440956772188061,0.239963868624098,0.425369578363016]","1","0","false"
"","","","","","two-step-trial","162","760413","0.0-163.0-0.0","","","","","0mb","undefinedundefined","undefined","[0,1]","0","0","1099","1","0","[0,1]","0","0","897","1","[""#486ea7"",""#a75248""]","[""#5b7c65"",""#706081""]","[980,401]","1","158","[0.702669793848676,0.479289668787944,0.247495641569249,0.472602579836385]","1","0","false"
"","","","","","two-step-trial","163","764594","0.0-164.0-0.0","","","","","0mb","undefinedundefined","undefined","[0,1]","0","0","885","0","1","[2,3]","0","2","1277","0","[""#486ea7"",""#a75248""]","[""#5b7c65"",""#706081""]","[980,401]","1","159","[0.695609759633091,0.472348602671097,0.266257930149827,0.481914787414879]","1","0","false"
"","","","","","two-step-trial","164","768649","0.0-165.0-0.0","","","","","0mb","undefinedundefined","undefined","[0,1]","1","1","1135","0","0","[0,1]","1","1","901","1","[""#486ea7"",""#a75248""]","[""#5b7c65"",""#706081""]","[980,401]","1","160","[0.676664920810476,0.457052010757437,0.262682604295481,0.514246102361489]","1","0","false"
"","","","","","two-step-trial","165","772528","0.0-166.0-0.0","","","","","0mb","undefinedundefined","undefined","[0,1]","1","1","981","0","0","[0,1]","1","1","880","0","[""#486ea7"",""#a75248""]","[""#5b7c65"",""#706081""]","[980,401]","1","161","[0.642594316211286,0.464367136968696,0.241423244784237,0.51339298481946]","1","0","false"
"","","","","","two-step-trial","166","776428","0.0-167.0-0.0","","","","","0mb","undefinedundefined","undefined","[0,1]","1","1","938","1","1","[2,3]","0","2","945","0","[""#486ea7"",""#a75248""]","[""#5b7c65"",""#706081""]","[980,401]","1","162","[0.691300157078544,0.457947408304647,0.224965324254924,0.492055382901237]","1","0","false"
"","","","","","two-step-trial","167","780181","0.0-168.0-0.0","","","","","0mb","undefinedundefined","undefined","[0,1]","1","1","885","1","1","[2,3]","1","3","850","0","[""#486ea7"",""#a75248""]","[""#5b7c65"",""#706081""]","[980,401]","1","163","[0.706539464558016,0.490043591765912,0.20815022554897,0.503481716545119]","1","0","false"
"","","","","","two-step-trial","168","784128","0.0-169.0-0.0","","","","","0mb","undefinedundefined","undefined","[0,1]","0","0","915","0","1","[2,3]","0","2","1013","1","[""#486ea7"",""#a75248""]","[""#5b7c65"",""#706081""]","[980,401]","1","164","[0.67972508949249,0.506905499158757,0.243091718331302,0.53561897282366]","1","0","false"
"","","","","","two-step-trial","169","788078","0.0-170.0-0.0","","","","","0mb","undefinedundefined","undefined","[0,1]","0","0","1038","0","1","[2,3]","0","2","892","1","[""#486ea7"",""#a75248""]","[""#5b7c65"",""#706081""]","[980,401]","1","165","[0.659459419416035,0.47032191382832,0.224102529098544,0.534780683425046]","1","0","false"
"","","","","","two-step-trial","170","791946","0.0-171.0-0.0","","","","","0mb","undefinedundefined","undefined","[0,1]","0","0","902","0","1","[2,3]","0","2","947","0","[""#486ea7"",""#a75248""]","[""#5b7c65"",""#706081""]","[980,401]","1","166","[0.645929169491925,0.460192187975273,0.219621806244928,0.521884700999976]","1","0","false"
"","","","","","two-step-trial","171","795930","0.0-172.0-0.0","","","","","0mb","undefinedundefined","undefined","[0,1]","0","0","1034","1","0","[0,1]","0","0","927","1","[""#486ea7"",""#a75248""]","[""#5b7c65"",""#706081""]","[980,401]","1","167","[0.653487311626936,0.443176570310711,0.211296862296458,0.533423962686141]","1","0","false"
"","","","","","two-step-trial","172","799949","0.0-173.0-0.0","","","","","0mb","undefinedundefined","undefined","[0,1]","0","0","1118","0","1","[2,3]","0","2","881","1","[""#486ea7"",""#a75248""]","[""#5b7c65"",""#706081""]","[980,401]","1","168","[0.634380926281512,0.404319074375956,0.213857916485784,0.498608671930623]","1","0","false"
"","","","","","two-step-trial","173","803796","0.0-174.0-0.0","","","","","0mb","undefinedundefined","undefined","[0,1]","0","0","901","1","0","[0,1]","0","0","926","1","[""#486ea7"",""#a75248""]","[""#5b7c65"",""#706081""]","[980,401]","1","169","[0.623005980057505,0.384352236028935,0.22443266996789,0.504598455679822]","1","0","false"
"","","","","","two-step-trial","174","807915","0.0-175.0-0.0","","","","","0mb","undefinedundefined","undefined","[0,1]","0","0","919","1","0","[0,1]","0","0","1181","0","[""#486ea7"",""#a75248""]","[""#5b7c65"",""#706081""]","[980,401]","1","170","[0.596868890102504,0.35004222247701,0.230316153161428,0.519965724806186]","1","0","false"
"","","","","","two-step-trial","175","816598","0.0-176.0-0.0","","","","","0mb","undefinedundefined","undefined","[0,1]","0","0","5037","0","1","[2,3]","0","2","1628","0","[""#486ea7"",""#a75248""]","[""#5b7c65"",""#706081""]","[980,401]","1","171","[0.596694079474015,0.375669636730893,0.215778902423514,0.572338328491285]","1","0","false"
"","","","","","two-step-trial","176","821150","0.0-177.0-0.0","","","","","0mb","undefinedundefined","undefined","[0,1]","0","0","1135","1","0","[0,1]","0","0","1397","0","[""#486ea7"",""#a75248""]","[""#5b7c65"",""#706081""]","[980,401]","1","172","[0.554909109049935,0.394098056273442,0.209529593473495,0.561462195354385]","1","0","false"
"","","","","","two-step-trial","177","825467","0.0-178.0-0.0","","","","","0mb","undefinedundefined","undefined","[0,1]","1","1","1333","1","1","[2,3]","1","3","963","0","[""#486ea7"",""#a75248""]","[""#5b7c65"",""#706081""]","[980,401]","1","173","[0.585557435389468,0.387730258543785,0.206709379204264,0.59028158970506]","1","0","false"
"","","","","","two-step-trial","178","829548","0.0-179.0-0.0","","","","","0mb","undefinedundefined","undefined","[0,1]","0","0","987","1","0","[0,1]","0","0","1075","0","[""#486ea7"",""#a75248""]","[""#5b7c65"",""#706081""]","[980,401]","1","174","[0.622004810160408,0.350399627434193,0.204470561321603,0.615262272444997]","1","0","false"
"","","","","","two-step-trial","179","833235","0.0-180.0-0.0","","","","","0mb","undefinedundefined","undefined","[0,1]","0","0","952","1","0","[0,1]","1","1","716","1","[""#486ea7"",""#a75248""]","[""#5b7c65"",""#706081""]","[980,401]","1","175","[0.647472157173569,0.378272846394245,0.225467927220246,0.585051964069489]","1","0","false"
"","","","","","two-step-trial","180","837080","0.0-181.0-0.0","","","","","0mb","undefinedundefined","undefined","[0,1]","0","0","932","0","1","[2,3]","1","3","895","1","[""#486ea7"",""#a75248""]","[""#5b7c65"",""#706081""]","[980,401]","1","176","[0.645283400832942,0.350142043992634,0.216283442075506,0.554303579410601]","1","0","false"
"","","","","","two-step-trial","181","841067","0.0-182.0-0.0","","","","","0mb","undefinedundefined","undefined","[0,1]","0","0","939","1","0","[0,1]","1","1","1030","0","[""#486ea7"",""#a75248""]","[""#5b7c65"",""#706081""]","[980,401]","1","177","[0.665952054169055,0.306770391154971,0.206902532750835,0.585097116775087]","1","0","false"
"","","","","","two-step-trial","182","844971","0.0-183.0-0.0","","","","","0mb","undefinedundefined","undefined","[0,1]","0","0","917","0","1","[2,3]","0","2","966","0","[""#486ea7"",""#a75248""]","[""#5b7c65"",""#706081""]","[980,401]","1","178","[0.672546262743052,0.285239595453852,0.221138200395657,0.545091062858293]","1","0","false"
"","","","","","two-step-trial","183","852060","0.0-184.0-0.0","","","","","0mb","undefinedundefined","undefined","[0,1]","0","0","1230","1","0","[0,1]","1","1","3839","0","[""#486ea7"",""#a75248""]","[""#5b7c65"",""#706081""]","[980,401]","1","179","[0.681099471101566,0.25207356432189,0.249180727659467,0.584617394704893]","1","0","false"
"","","","","","two-step-trial","184","856160","0.0-185.0-0.0","","","","","0mb","undefinedundefined","undefined","[0,1]","0","0","970","1","0","[0,1]","0","0","1109","1","[""#486ea7"",""#a75248""]","[""#5b7c65"",""#706081""]","[980,401]","1","180","[0.727374870677023,0.237524772289519,0.249471404634673,0.564336747176244]","1","0","false"
"","","","","","two-step-trial","185","861192","0.0-186.0-0.0","","","","","0mb","undefinedundefined","undefined","[0,1]","0","0","1919","0","1","[2,3]","1","3","1093","1","[""#486ea7"",""#a75248""]","[""#5b7c65"",""#706081""]","[980,401]","1","181","[0.745450556757656,0.26126906405278,0.251658926798072,0.570460521324612]","1","0","false"
"","","","","","two-step-trial","186","865242","0.0-187.0-0.0","","","","","0mb","undefinedundefined","undefined","[0,1]","0","0","1035","0","1","[2,3]","0","2","996","1","[""#486ea7"",""#a75248""]","[""#5b7c65"",""#706081""]","[980,401]","1","182","[0.729097667158122,0.22904282115756,0.236392615870717,0.577424818274377]","1","0","false"
"","","","","","two-step-trial","187","869243","0.0-188.0-0.0","","","","","0mb","undefinedundefined","undefined","[0,1]","0","0","837","0","1","[2,3]","0","2","1144","0","[""#486ea7"",""#a75248""]","[""#5b7c65"",""#706081""]","[980,401]","1","183","[0.761209090004099,0.241998275248377,0.233114103017844,0.574874044034494]","1","0","false"
"","","","","","two-step-trial","188","873878","0.0-189.0-0.0","","","","","0mb","undefinedundefined","undefined","[0,1]","0","0","1337","1","0","[0,1]","1","1","1278","0","[""#486ea7"",""#a75248""]","[""#5b7c65"",""#706081""]","[980,401]","1","184","[0.791015392059462,0.255521646134032,0.219713945643938,0.590164067891196]","1","0","false"
"","","","","","two-step-trial","189","877778","0.0-190.0-0.0","","","","","0mb","undefinedundefined","undefined","[0,1]","0","0","832","0","1","[2,3]","0","2","1049","0","[""#486ea7"",""#a75248""]","[""#5b7c65"",""#706081""]","[980,401]","1","185","[0.795093112957847,0.265263637381209,0.23828635796464,0.565053895673645]","1","0","false"
"","","","","","two-step-trial","190","881711","0.0-191.0-0.0","","","","","0mb","undefinedundefined","undefined","[0,1]","0","0","989","0","1","[2,3]","0","2","925","0","[""#486ea7"",""#a75248""]","[""#5b7c65"",""#706081""]","[980,401]","1","186","[0.792459982200917,0.303270953533089,0.265109017445143,0.559630687784]","1","0","false"
"","","","","","two-step-trial","191","889011","0.0-192.0-0.0","","","","","0mb","undefinedundefined","undefined","[0,1]","0","0","4437","1","0","[0,1]","0","0","843","1","[""#486ea7"",""#a75248""]","[""#5b7c65"",""#706081""]","[980,401]","1","187","[0.758753337507351,0.314280970755936,0.233436550731991,0.58673227799586]","1","0","false"
"","","","","","two-step-trial","192","893362","0.0-193.0-0.0","","","","","0mb","undefinedundefined","undefined","[0,1]","0","0","1435","1","0","[0,1]","0","0","898","1","[""#486ea7"",""#a75248""]","[""#5b7c65"",""#706081""]","[980,401]","1","188","[0.740432719435366,0.339609149383013,0.215596339994805,0.584534467773649]","1","0","false"
"","","","","","two-step-trial","193","897313","0.0-194.0-0.0","","","","","0mb","undefinedundefined","undefined","[0,1]","0","0","1003","1","0","[0,1]","0","0","928","1","[""#486ea7"",""#a75248""]","[""#5b7c65"",""#706081""]","[980,401]","1","189","[0.753660828418381,0.340333474465169,0.221378672877545,0.558829250600196]","1","0","false"
"","","","","","two-step-trial","194","901446","0.0-195.0-0.0","","","","","0mb","undefinedundefined","undefined","[0,1]","0","0","967","1","0","[0,1]","0","0","1147","0","[""#486ea7"",""#a75248""]","[""#5b7c65"",""#706081""]","[980,401]","1","190","[0.737066947882041,0.327452683128881,0.237937240021626,0.579307857231088]","1","0","false"
"","","","","","two-step-trial","195","905266","0.0-196.0-0.0","","","","","0mb","undefinedundefined","undefined","[0,1]","0","0","868","1","0","[0,1]","0","0","930","1","[""#486ea7"",""#a75248""]","[""#5b7c65"",""#706081""]","[980,401]","1","191","[0.690410086119848,0.348906735925739,0.260226755815491,0.580696901247909]","1","0","false"
"","","","","","two-step-trial","196","909171","0.0-197.0-0.0","","","","","0mb","undefinedundefined","undefined","[0,1]","0","0","950","1","0","[0,1]","0","0","942","1","[""#486ea7"",""#a75248""]","[""#5b7c65"",""#706081""]","[980,401]","1","192","[0.69916942381364,0.392666416616926,0.244781064476696,0.60350971721679]","1","0","false"
"","","","","","two-step-trial","197","912718","0.0-198.0-0.0","","","","","0mb","undefinedundefined","undefined","[0,1]","0","0","877","1","0","[0,1]","0","0","651","1","[""#486ea7"",""#a75248""]","[""#5b7c65"",""#706081""]","[980,401]","1","193","[0.738782101327745,0.408186786736808,0.243042491151386,0.578446992532654]","1","0","false"
"","","","","","two-step-trial","198","916564","0.0-199.0-0.0","","","","","0mb","undefinedundefined","undefined","[0,1]","0","0","980","1","0","[0,1]","0","0","847","1","[""#486ea7"",""#a75248""]","[""#5b7c65"",""#706081""]","[980,401]","1","194","[0.791430563828307,0.401485731422121,0.22389117797446,0.589715695948288]","1","0","false"
"","","","","","two-step-trial","199","920513","0.0-200.0-0.0","","","","","0mb","undefinedundefined","undefined","[0,1]","0","0","1071","1","0","[0,1]","0","0","860","0","[""#486ea7"",""#a75248""]","[""#5b7c65"",""#706081""]","[980,401]","1","195","[0.780216354136084,0.345123475746778,0.222510365699215,0.5866375510782]","1","0","false"
"","","","","","two-step-trial","200","924298","0.0-201.0-0.0","","","","","0mb","undefinedundefined","undefined","[0,1]","0","0","785","1","0","[0,1]","0","0","981","1","[""#486ea7"",""#a75248""]","[""#5b7c65"",""#706081""]","[980,401]","1","196","[0.79371279877333,0.320737709182647,0.233739442138471,0.558212212676517]","1","0","false"
"","","","","","two-step-trial","201","928386","0.0-202.0-0.0","","","","","0mb","undefinedundefined","undefined","[0,1]","0","0","1033","1","0","[0,1]","0","0","1034","1","[""#486ea7"",""#a75248""]","[""#5b7c65"",""#706081""]","[980,401]","1","197","[0.780560319418526,0.29019038797939,0.294683311391219,0.597606336003003]","1","0","false"
"","","","","","two-step-trial","202","932150","0.0-203.0-0.0","","","","","0mb","undefinedundefined","undefined","[0,1]","0","0","896","1","0","[0,1]","0","0","848","1","[""#486ea7"",""#a75248""]","[""#5b7c65"",""#706081""]","[980,401]","1","198","[0.782021089611731,0.293724926777974,0.270717136281492,0.581529434948974]","1","0","false"
"","","","","","two-step-trial","203","936184","0.0-204.0-0.0","","","","","0mb","undefinedundefined","undefined","[0,1]","0","0","1086","0","1","[2,3]","0","2","928","0","[""#486ea7"",""#a75248""]","[""#5b7c65"",""#706081""]","[980,401]","1","199","[0.729926444510967,0.262215285738933,0.258892666395121,0.582708751373566]","1","0","false"
"","","","","","two-step-trial","204","940149","0.0-205.0-0.0","","","","","0mb","undefinedundefined","undefined","[0,1]","0","0","1050","1","0","[0,1]","0","0","896","1","[""#486ea7"",""#a75248""]","[""#5b7c65"",""#706081""]","[980,401]","1","200","[0.703484851322617,0.270266883991897,0.264630524973844,0.550434221385245]","1","0","false"
